1,2,3,4,5,6,7,8,9,10,11,12,13,14,15,16,17,18,19,20,
UserData_20,Frame ID£º0x01,FC_ACC_X,FC_ACC_Y,FC_ACC_Z,FC_GYR_X,FC_GYR_Y,FC_GYR_Z,FC_STA_Shock,Frame ID£º0x02,FC_MAG_X,FC_MAG_Y,FC_MAG_Z,FC_ALT_BAR,FC_SenserTMP,FC_STA_BAR,FC_STA_MAG,Frame ID£º0x03,FC_ATT_ROL,FC_ATT_PIT,
0,0,19,-103,2011,-12,-19,5,39,0,0,0,0,0,0,0,0,0,0,0,
0,0,22,-108,2015,-5,-19,10,53,0,0,0,0,0,0,0,0,0,0,0,
0,0,13,-103,2019,-6,-17,5,49,0,0,0,0,0,0,0,0,0,0,0,
0,0,16,-111,2013,-8,-18,5,35,0,0,0,0,0,0,0,0,0,0,0,
0,0,19,-112,2016,-5,-18,8,46,0,0,0,0,0,0,0,0,0,0,0,
0,0,18,-102,2024,-7,-17,10,64,0,0,0,0,0,0,0,0,0,0,0,
0,0,14,-109,2008,-7,-19,4,29,0,0,0,0,0,0,0,0,0,0,0,
0,0,17,-107,2016,-6,-16,10,52,0,0,0,0,0,0,0,0,0,0,0,
0,0,11,-107,2019,-12,-18,1,32,0,0,0,0,0,0,0,0,0,0,0,
0,0,16,-108,2015,-7,-18,7,43,0,0,0,0,0,0,0,0,0,0,0,
0,0,15,-98,2018,-8,-18,7,54,0,0,0,0,0,0,0,0,0,0,0,
0,0,20,-102,2017,-4,-16,5,58,0,0,0,0,0,0,0,0,0,0,0,
0,0,18,-109,2015,-8,-19,4,39,0,0,0,0,0,0,0,0,0,0,0,
0,0,17,-113,2016,-10,-19,7,36,0,0,0,0,0,0,0,0,0,0,0,
0,0,14,-109,2015,-8,-21,7,36,0,0,0,0,0,0,0,0,0,0,0,
0,0,13,-103,2016,-5,-18,4,45,0,0,0,0,0,0,0,0,0,0,0,
0,0,17,-109,2011,-5,-17,7,42,0,0,0,0,0,0,0,0,0,0,0,
0,0,11,-107,2017,-8,-18,9,42,0,0,0,0,0,0,0,0,0,0,0,
0,0,14,-99,2015,-7,-16,6,51,0,0,0,0,0,0,0,0,0,0,0,
0,0,16,-100,2023,-9,-17,5,56,0,0,0,0,0,0,0,0,0,0,0,
0,0,20,-96,2007,-9,-19,6,47,0,0,0,0,0,0,0,0,0,0,0,
0,0,11,-111,2018,-6,-17,7,40,0,0,0,0,0,0,0,0,0,0,0,
0,0,20,-106,2015,-9,-21,3,40,0,0,0,0,0,0,0,0,0,0,0,
0,0,12,-100,2007,-8,-15,2,36,0,0,0,0,0,0,0,0,0,0,0,
0,0,13,-106,2008,-12,-17,4,28,0,0,0,0,0,0,0,0,0,0,0,
0,0,15,-108,2007,-7,-19,10,36,0,0,0,0,0,0,0,0,0,0,0,
0,0,15,-103,2017,-9,-17,9,50,0,0,0,0,0,0,0,0,0,0,0,
0,0,19,-105,2019,-8,-18,2,47,0,0,0,0,0,0,0,0,0,0,0,
0,0,18,-108,2019,-8,-19,7,47,0,0,0,0,0,0,0,0,0,0,0,
0,0,11,-103,2016,-9,-20,7,40,0,0,0,0,0,0,0,0,0,0,0,
0,0,19,-105,2014,-7,-16,7,50,0,0,0,0,0,0,0,0,0,0,0,
0,0,19,-105,2015,-7,-17,8,51,0,0,0,0,0,0,0,0,0,0,0,
0,0,17,-100,2019,-4,-17,8,61,0,0,0,0,0,0,0,0,0,0,0,
0,0,18,-105,2019,-6,-20,10,54,0,0,0,0,0,0,0,0,0,0,0,
0,0,22,-109,2021,-6,-19,6,53,0,0,0,0,0,0,0,0,0,0,0,
0,0,13,-105,2021,-7,-17,7,50,0,0,0,0,0,0,0,0,0,0,0,
0,0,21,-103,2020,-8,-16,7,59,0,0,0,0,0,0,0,0,0,0,0,
0,0,15,-104,2019,-11,-19,7,45,0,0,0,0,0,0,0,0,0,0,0,
0,0,22,-105,2013,-8,-18,6,48,0,0,0,0,0,0,0,0,0,0,0,
0,0,21,-107,2012,-4,-17,7,50,0,0,0,0,0,0,0,0,0,0,0,
0,0,17,-104,2019,-7,-20,4,47,0,0,0,0,0,0,0,0,0,0,0,
0,0,17,-110,2018,-3,-17,9,52,0,0,0,0,0,0,0,0,0,0,0,
0,0,15,-107,2017,-5,-18,8,48,0,0,0,0,0,0,0,0,0,0,0,
0,0,17,-106,2019,-8,-22,6,44,0,0,0,0,0,0,0,0,0,0,0,
0,0,23,-111,2016,-9,-16,4,45,0,0,0,0,0,0,0,0,0,0,0,
0,0,21,-108,2018,-5,-18,3,49,0,0,0,0,0,0,0,0,0,0,0,
0,0,16,-98,2017,-10,-16,3,50,0,0,0,0,0,0,0,0,0,0,0,
0,0,14,-100,2017,-7,-17,7,52,0,0,0,0,0,0,0,0,0,0,0,
0,0,18,-107,2011,-1,-18,7,48,0,0,0,0,0,0,0,0,0,0,0,
0,0,16,-102,2017,-10,-17,6,48,0,0,0,0,0,0,0,0,0,0,0,
0,0,13,-105,2014,-7,-17,2,38,0,0,0,0,0,0,0,0,0,0,0,
0,0,21,-109,2015,-9,-21,6,41,0,0,0,0,0,0,0,0,0,0,0,
0,0,18,-103,2014,-6,-19,8,50,0,0,0,0,0,0,0,0,0,0,0,
0,0,9,-96,2018,-8,-20,7,48,0,0,0,0,0,0,0,0,0,0,0,
0,0,13,-108,2011,-4,-19,8,39,0,0,0,0,0,0,0,0,0,0,0,
0,0,13,-102,2018,-4,-17,5,51,0,0,0,0,0,0,0,0,0,0,0,
0,0,16,-99,2016,-6,-17,7,55,0,0,0,0,0,0,0,0,0,0,0,
0,0,20,-105,2016,-7,-18,5,49,0,0,0,0,0,0,0,0,0,0,0,
0,0,12,-102,2014,-8,-17,4,41,0,0,0,0,0,0,0,0,0,0,0,
0,0,13,-107,2013,-9,-18,5,35,0,0,0,0,0,0,0,0,0,0,0,
0,0,18,-106,2016,-11,-18,7,44,0,0,0,0,0,0,0,0,0,0,0,
0,0,18,-113,2016,-6,-19,9,43,0,0,0,0,0,0,0,0,0,0,0,
0,0,17,-108,2013,-8,-19,7,40,0,0,0,0,0,0,0,0,0,0,0,
0,0,17,-100,2014,-8,-21,5,45,0,0,0,0,0,0,0,0,0,0,0,
0,0,20,-116,2008,-9,-17,7,31,0,0,0,0,0,0,0,0,0,0,0,
0,0,16,-111,2014,-10,-19,4,32,0,0,0,0,0,0,0,0,0,0,0,
0,0,16,-111,2014,-10,-19,4,32,0,0,0,0,0,0,0,0,0,0,0,
0,0,12,-103,2025,-10,-19,6,49,0,0,0,0,0,0,0,0,0,0,0,
0,0,18,-110,2019,-9,-18,11,49,0,0,0,0,0,0,0,0,0,0,0,
0,0,13,-104,2020,-5,-17,7,52,0,0,0,0,0,0,0,0,0,0,0,
0,0,13,-104,2020,-5,-17,7,52,0,0,0,0,0,0,0,0,0,0,0,
0,0,14,-106,2017,-5,-19,9,48,0,0,0,0,0,0,0,0,0,0,0,
0,0,14,-105,2015,-6,-17,4,43,0,0,0,0,0,0,0,0,0,0,0,
0,0,19,-100,2016,-7,-18,8,56,0,0,0,0,0,0,0,0,0,0,0,
0,0,18,-111,2012,-6,-19,6,38,0,0,0,0,0,0,0,0,0,0,0,
0,0,18,-111,2012,-8,-16,7,40,0,0,0,0,0,0,0,0,0,0,0,
0,0,16,-101,2015,-7,-18,9,52,0,0,0,0,0,0,0,0,0,0,0,
0,0,24,-102,2024,-6,-19,12,71,0,0,0,0,0,0,0,0,0,0,0,
0,0,21,-109,2018,-8,-17,7,50,0,0,0,0,0,0,0,0,0,0,0,
0,0,15,-105,2018,-3,-18,3,48,0,0,0,0,0,0,0,0,0,0,0,
0,0,18,-102,2021,-10,-16,7,56,0,0,0,0,0,0,0,0,0,0,0,
0,0,16,-108,2017,-11,-21,1,32,0,0,0,0,0,0,0,0,0,0,0,
0,0,15,-105,2007,-5,-19,10,41,0,0,0,0,0,0,0,0,0,0,0,
0,0,17,-100,2017,-7,-15,1,51,0,0,0,0,0,0,0,0,0,0,0,
0,0,15,-104,2017,-4,-20,8,50,0,0,0,0,0,0,0,0,0,0,0,
0,0,14,-101,2014,-7,-18,6,46,0,0,0,0,0,0,0,0,0,0,0,
0,0,15,-99,2014,-10,-18,7,47,0,0,0,0,0,0,0,0,0,0,0,
0,0,15,-105,2014,-8,-17,3,40,0,0,0,0,0,0,0,0,0,0,0,
0,0,14,-104,2018,-8,-17,8,49,0,0,0,0,0,0,0,0,0,0,0,
0,0,17,-105,2021,-9,-16,5,51,0,0,0,0,0,0,0,0,0,0,0,
0,0,17,-109,2016,-6,-18,7,45,0,0,0,0,0,0,0,0,0,0,0,
0,0,19,-109,2019,-9,-18,7,47,0,0,0,0,0,0,0,0,0,0,0,
0,0,16,-110,2015,-4,-22,7,40,0,0,0,0,0,0,0,0,0,0,0,
0,0,24,-104,2019,-7,-17,10,63,0,0,0,0,0,0,0,0,0,0,0,
0,0,15,-102,2024,-9,-20,4,50,0,0,0,0,0,0,0,0,0,0,0,
0,0,17,-111,2013,-9,-18,8,38,0,0,0,0,0,0,0,0,0,0,0,
0,0,21,-105,2018,-4,-15,7,60,0,0,0,0,0,0,0,0,0,0,0,
0,0,23,-104,2017,-6,-21,5,52,0,0,0,0,0,0,0,0,0,0,0,
0,0,15,-104,2015,-7,-17,6,46,0,0,0,0,0,0,0,0,0,0,0,
0,0,13,-103,2020,-6,-19,10,53,0,0,0,0,0,0,0,0,0,0,0,
0,0,18,-101,2017,-6,-18,6,54,0,0,0,0,0,0,0,0,0,0,0,
0,0,17,-105,2019,-4,-17,6,54,0,0,0,0,0,0,0,0,0,0,0,
0,0,16,-99,2009,-9,-18,6,43,0,0,0,0,0,0,0,0,0,0,0,
0,0,20,-101,2013,-7,-18,8,53,0,0,0,0,0,0,0,0,0,0,0,
0,0,22,-107,2014,-10,-16,4,45,0,0,0,0,0,0,0,0,0,0,0,
0,0,10,-106,2014,-9,-16,7,38,0,0,0,0,0,0,0,0,0,0,0,
0,0,19,-107,2021,-8,-18,5,50,0,0,0,0,0,0,0,0,0,0,0,
0,0,20,-111,2013,-6,-22,6,38,0,0,0,0,0,0,0,0,0,0,0,
0,0,20,-104,2015,-8,-19,6,48,0,0,0,0,0,0,0,0,0,0,0,
0,0,21,-103,2016,-6,-18,3,51,0,0,0,0,0,0,0,0,0,0,0,
0,0,16,-102,2025,-6,-18,4,57,0,0,0,0,0,0,0,0,0,0,0,
0,0,17,-111,2018,-3,-19,6,46,0,0,0,0,0,0,0,0,0,0,0,
0,0,18,-101,2017,-9,-18,7,52,0,0,0,0,0,0,0,0,0,0,0,
0,0,19,-102,2011,-6,-17,6,49,0,0,0,0,0,0,0,0,0,0,0,
0,0,22,-107,2018,-8,-20,3,46,0,0,0,0,0,0,0,0,0,0,0,
0,0,18,-104,2023,-6,-21,8,56,0,0,0,0,0,0,0,0,0,0,0,
0,0,16,-104,2016,-7,-18,5,46,0,0,0,0,0,0,0,0,0,0,0,
0,0,8,-107,2017,-8,-15,7,40,0,0,0,0,0,0,0,0,0,0,0,
0,0,21,-104,2017,-8,-21,8,51,0,0,0,0,0,0,0,0,0,0,0,
0,0,19,-108,2016,-6,-19,3,43,0,0,0,0,0,0,0,0,0,0,0,
0,0,14,-97,2016,-5,-18,4,52,0,0,0,0,0,0,0,0,0,0,0,
0,0,12,-103,2019,-8,-18,5,45,0,0,0,0,0,0,0,0,0,0,0,
0,0,17,-101,2011,-8,-17,4,44,0,0,0,0,0,0,0,0,0,0,0,
0,0,18,-109,2009,-6,-17,6,39,0,0,0,0,0,0,0,0,0,0,0,
0,0,14,-107,2011,-10,-16,5,35,0,0,0,0,0,0,0,0,0,0,0,
0,0,24,-108,2018,-12,-19,4,45,0,0,0,0,0,0,0,0,0,0,0,
0,0,15,-94,2020,-6,-21,3,55,0,0,0,0,0,0,0,0,0,0,0,
0,0,11,-108,2018,-8,-18,6,39,0,0,0,0,0,0,0,0,0,0,0,
0,0,20,-104,2014,-9,-18,6,47,0,0,0,0,0,0,0,0,0,0,0,
0,0,16,-107,2016,-8,-19,4,40,0,0,0,0,0,0,0,0,0,0,0,
0,0,14,-103,2007,-9,-16,6,37,0,0,0,0,0,0,0,0,0,0,0,
0,0,19,-110,2011,-8,-19,5,36,0,0,0,0,0,0,0,0,0,0,0,
0,0,11,-101,2016,-7,-18,4,43,0,0,0,0,0,0,0,0,0,0,0,
0,0,21,-109,2022,-5,-18,8,57,0,0,0,0,0,0,0,0,0,0,0,
0,0,16,-105,2014,-7,-20,8,44,0,0,0,0,0,0,0,0,0,0,0,
0,0,22,-103,2021,-7,-15,6,62,0,0,0,0,0,0,0,0,0,0,0,
0,0,16,-104,2018,-9,-17,5,47,0,0,0,0,0,0,0,0,0,0,0,
0,0,11,-100,2015,-9,-16,3,42,0,0,0,0,0,0,0,0,0,0,0,
0,0,11,-110,2018,-8,-20,5,34,0,0,0,0,0,0,0,0,0,0,0,
0,0,19,-103,2014,-7,-18,8,51,0,0,0,0,0,0,0,0,0,0,0,
0,0,18,-100,2019,-5,-21,5,54,0,0,0,0,0,0,0,0,0,0,0,
0,0,14,-105,2021,-4,-16,3,51,0,0,0,0,0,0,0,0,0,0,0,
0,0,20,-103,2017,-8,-17,3,50,0,0,0,0,0,0,0,0,0,0,0,
0,0,21,-101,2018,-4,-19,7,60,0,0,0,0,0,0,0,0,0,0,0,
0,0,16,-108,2018,-7,-18,8,47,0,0,0,0,0,0,0,0,0,0,0,
0,0,14,-108,2016,-9,-17,3,37,0,0,0,0,0,0,0,0,0,0,0,
0,0,15,-104,2016,-6,-16,5,48,0,0,0,0,0,0,0,0,0,0,0,
0,0,15,-103,2015,-7,-17,6,47,0,0,0,0,0,0,0,0,0,0,0,
0,0,24,-109,2022,-9,-17,6,55,0,0,0,0,0,0,0,0,0,0,0,
0,0,15,-105,2019,-9,-18,7,47,0,0,0,0,0,0,0,0,0,0,0,
0,0,16,-98,2027,-6,-19,7,65,0,0,0,0,0,0,0,0,0,0,0,
0,0,16,-109,2019,-9,-19,9,45,0,0,0,0,0,0,0,0,0,0,0,
0,0,17,-111,2019,-9,-21,6,39,0,0,0,0,0,0,0,0,0,0,0,
0,0,13,-109,2015,-7,-20,4,34,0,0,0,0,0,0,0,0,0,0,0,
0,0,17,-103,2016,-8,-17,8,51,0,0,0,0,0,0,0,0,0,0,0,
0,0,15,-103,2013,-6,-21,5,41,0,0,0,0,0,0,0,0,0,0,0,
0,0,16,-108,2010,-8,-21,8,35,0,0,0,0,0,0,0,0,0,0,0,
0,0,10,-113,2015,-9,-15,3,29,0,0,0,0,0,0,0,0,0,0,0,
0,0,19,-106,2016,-8,-17,6,48,0,0,0,0,0,0,0,0,0,0,0,
0,0,18,-106,2008,-8,-18,7,39,0,0,0,0,0,0,0,0,0,0,0,
0,0,17,-103,2016,-6,-17,6,51,0,0,0,0,0,0,0,0,0,0,0,
0,0,12,-109,2022,-5,-20,5,43,0,0,0,0,0,0,0,0,0,0,0,
0,0,21,-110,2018,-7,-22,8,46,0,0,0,0,0,0,0,0,0,0,0,
0,0,16,-101,2021,-9,-15,6,56,0,0,0,0,0,0,0,0,0,0,0,
0,0,19,-100,2019,-6,-18,7,59,0,0,0,0,0,0,0,0,0,0,0,
0,0,14,-109,2015,-9,-18,3,34,0,0,0,0,0,0,0,0,0,0,0,
0,0,23,-102,2017,-8,-19,5,54,0,0,0,0,0,0,0,0,0,0,0,
0,0,21,-108,2022,-8,-19,5,51,0,0,0,0,0,0,0,0,0,0,0,
0,0,11,-110,2015,-9,-17,5,33,0,0,0,0,0,0,0,0,0,0,0,
0,0,21,-109,2007,-5,-18,4,38,0,0,0,0,0,0,0,0,0,0,0,
0,0,18,-110,2014,-8,-17,9,44,0,0,0,0,0,0,0,0,0,0,0,
0,0,11,-107,2017,-8,-19,7,39,0,0,0,0,0,0,0,0,0,0,0,
0,0,20,-105,2018,-6,-20,7,52,0,0,0,0,0,0,0,0,0,0,0,
0,0,12,-110,2014,-10,-21,6,29,0,0,0,0,0,0,0,0,0,0,0,
0,0,17,-106,2018,-6,-20,9,50,0,0,0,0,0,0,0,0,0,0,0,
0,0,17,-106,2018,-6,-20,9,50,0,0,0,0,0,0,0,0,0,0,0,
0,0,16,-107,2018,-10,-18,6,43,0,0,0,0,0,0,0,0,0,0,0,
0,0,13,-99,2017,-5,-20,7,51,0,0,0,0,0,0,0,0,0,0,0,
0,0,17,-105,2014,-6,-20,7,45,0,0,0,0,0,0,0,0,0,0,0,
0,0,17,-105,2014,-6,-20,7,45,0,0,0,0,0,0,0,0,0,0,0,
0,0,19,-106,2020,-8,-17,5,51,0,0,0,0,0,0,0,0,0,0,0,
0,0,16,-102,2016,-8,-18,6,48,0,0,0,0,0,0,0,0,0,0,0,
0,0,19,-109,2011,-6,-18,4,39,0,0,0,0,0,0,0,0,0,0,0,
0,0,19,-109,2011,-8,-18,7,40,0,0,0,0,0,0,0,0,0,0,0,
0,0,17,-111,2015,-9,-15,6,41,0,0,0,0,0,0,0,0,0,0,0,
0,0,18,-103,2010,-7,-20,5,41,0,0,0,0,0,0,0,0,0,0,0,
0,0,12,-104,2016,-6,-18,4,42,0,0,0,0,0,0,0,0,0,0,0,
0,0,13,-100,2019,-7,-21,6,48,0,0,0,0,0,0,0,0,0,0,0,
0,0,13,-104,2020,-8,-17,8,50,0,0,0,0,0,0,0,0,0,0,0,
0,0,21,-98,2024,-7,-21,7,64,0,0,0,0,0,0,0,0,0,0,0,
0,0,16,-102,2010,-6,-18,7,45,0,0,0,0,0,0,0,0,0,0,0,
0,0,13,-101,2008,-6,-18,7,41,0,0,0,0,0,0,0,0,0,0,0,
0,0,20,-108,2019,-5,-20,5,49,0,0,0,0,0,0,0,0,0,0,0,
0,0,19,-102,2018,-5,-15,10,63,0,0,0,0,0,0,0,0,0,0,0,
0,0,20,-108,2013,-8,-18,6,43,0,0,0,0,0,0,0,0,0,0,0,
0,0,18,-103,2021,-8,-17,6,55,0,0,0,0,0,0,0,0,0,0,0,
0,0,20,-101,2014,-9,-15,8,55,0,0,0,0,0,0,0,0,0,0,0,
0,0,21,-101,2015,-7,-18,4,52,0,0,0,0,0,0,0,0,0,0,0,
0,0,18,-99,2017,-7,-17,7,57,0,0,0,0,0,0,0,0,0,0,0,
0,0,14,-107,2006,-5,-17,7,36,0,0,0,0,0,0,0,0,0,0,0,
0,0,20,-103,2020,-9,-18,6,54,0,0,0,0,0,0,0,0,0,0,0,
0,0,13,-104,2017,-5,-17,7,49,0,0,0,0,0,0,0,0,0,0,0,
0,0,18,-105,2007,-5,-18,4,39,0,0,0,0,0,0,0,0,0,0,0,
0,0,19,-107,2018,-7,-17,11,55,0,0,0,0,0,0,0,0,0,0,0,
0,0,16,-104,2019,-8,-17,10,54,0,0,0,0,0,0,0,0,0,0,0,
0,0,17,-98,2018,-7,-21,3,50,0,0,0,0,0,0,0,0,0,0,0,
0,0,22,-106,2007,-8,-20,5,38,0,0,0,0,0,0,0,0,0,0,0,
0,0,18,-107,2014,-7,-21,4,39,0,0,0,0,0,0,0,0,0,0,0,
0,0,26,-107,2015,-8,-18,3,49,0,0,0,0,0,0,0,0,0,0,0,
0,0,19,-107,2020,-7,-19,6,50,0,0,0,0,0,0,0,0,0,0,0,
0,0,15,-104,2016,-7,-18,3,43,0,0,0,0,0,0,0,0,0,0,0,
0,0,14,-102,2016,-9,-20,6,43,0,0,0,0,0,0,0,0,0,0,0,
0,0,11,-103,2013,-6,-18,1,36,0,0,0,0,0,0,0,0,0,0,0,
0,0,18,-94,2010,-9,-20,9,52,0,0,0,0,0,0,0,0,0,0,0,
0,0,25,-104,2017,-7,-19,4,54,0,0,0,0,0,0,0,0,0,0,0,
0,0,14,-104,2022,-10,-16,6,50,0,0,0,0,0,0,0,0,0,0,0,
0,0,20,-107,2016,-6,-20,7,48,0,0,0,0,0,0,0,0,0,0,0,
0,0,18,-105,2018,-8,-17,7,51,0,0,0,0,0,0,0,0,0,0,0,
0,0,11,-105,2015,-5,-17,9,46,0,0,0,0,0,0,0,0,0,0,0,
0,0,22,-106,2016,-7,-18,5,50,0,0,0,0,0,0,0,0,0,0,0,
0,0,19,-104,2016,-7,-19,8,51,0,0,0,0,0,0,0,0,0,0,0,
0,0,21,-109,2011,-8,-20,5,38,0,0,0,0,0,0,0,0,0,0,0,
0,0,19,-106,2018,-10,-20,4,43,0,0,0,0,0,0,0,0,0,0,0,
0,0,16,-101,2024,-5,-16,7,63,0,0,0,0,0,0,0,0,0,0,0,
0,0,17,-110,2014,-3,-15,4,45,0,0,0,0,0,0,0,0,0,0,0,
0,0,23,-102,2018,-9,-18,6,56,0,0,0,0,0,0,0,0,0,0,0,
0,0,21,-107,2012,-7,-17,11,51,0,0,0,0,0,0,0,0,0,0,0,
0,0,13,-101,2021,-3,-18,12,62,0,0,0,0,0,0,0,0,0,0,0,
0,0,15,-102,2017,-9,-19,5,45,0,0,0,0,0,0,0,0,0,0,0,
0,0,12,-109,2010,-6,-15,6,36,0,0,0,0,0,0,0,0,0,0,0,
0,0,13,-107,2015,-6,-16,8,45,0,0,0,0,0,0,0,0,0,0,0,
0,0,12,-101,2016,-6,-18,8,49,0,0,0,0,0,0,0,0,0,0,0,
0,0,20,-102,2014,-10,-15,5,50,0,0,0,0,0,0,0,0,0,0,0,
0,0,17,-103,2022,-9,-17,5,53,0,0,0,0,0,0,0,0,0,0,0,
0,0,19,-109,2014,-4,-19,5,44,0,0,0,0,0,0,0,0,0,0,0,
0,0,14,-110,2017,-7,-16,7,43,0,0,0,0,0,0,0,0,0,0,0,
0,0,15,-105,2010,-6,-22,5,35,0,0,0,0,0,0,0,0,0,0,0,
0,0,20,-110,2015,-6,-20,8,45,0,0,0,0,0,0,0,0,0,0,0,
0,0,19,-102,2014,-5,-18,3,49,0,0,0,0,0,0,0,0,0,0,0,
0,0,15,-105,2022,-5,-18,5,52,0,0,0,0,0,0,0,0,0,0,0,
0,0,20,-100,2020,-7,-16,7,62,0,0,0,0,0,0,0,0,0,0,0,
0,0,18,-102,2020,-6,-19,3,52,0,0,0,0,0,0,0,0,0,0,0,
0,0,19,-106,2013,-8,-13,4,47,0,0,0,0,0,0,0,0,0,0,0,
0,0,12,-115,2010,-11,-17,6,23,0,0,0,0,0,0,0,0,0,0,0,
0,0,12,-107,2015,-4,-20,2,36,0,0,0,0,0,0,0,0,0,0,0,
0,0,25,-103,2014,-5,-18,9,60,0,0,0,0,0,0,0,0,0,0,0,
0,0,17,-103,2012,-6,-19,7,46,0,0,0,0,0,0,0,0,0,0,0,
0,0,18,-101,2018,-6,-18,1,50,0,0,0,0,0,0,0,0,0,0,0,
0,0,19,-108,2014,-5,-16,8,50,0,0,0,0,0,0,0,0,0,0,0,
0,0,12,-105,2018,-9,-18,3,39,0,0,0,0,0,0,0,0,0,0,0,
0,0,21,-101,2017,-5,-20,3,53,0,0,0,0,0,0,0,0,0,0,0,
0,0,20,-108,2013,-6,-19,1,39,0,0,0,0,0,0,0,0,0,0,0,
0,0,15,-108,2021,-8,-18,2,42,0,0,0,0,0,0,0,0,0,0,0,
0,0,17,-106,2023,-8,-19,4,49,0,0,0,0,0,0,0,0,0,0,0,
0,0,17,-103,2018,-10,-15,5,50,0,0,0,0,0,0,0,0,0,0,0,
0,0,15,-109,2017,-10,-17,7,41,0,0,0,0,0,0,0,0,0,0,0,
0,0,14,-105,2023,-10,-19,5,46,0,0,0,0,0,0,0,0,0,0,0,
0,0,12,-107,2019,-9,-19,5,39,0,0,0,0,0,0,0,0,0,0,0,
0,0,9,-105,2014,-6,-18,7,39,0,0,0,0,0,0,0,0,0,0,0,
0,0,17,-105,2017,-7,-19,8,49,0,0,0,0,0,0,0,0,0,0,0,
0,0,18,-99,2020,-6,-19,4,56,0,0,0,0,0,0,0,0,0,0,0,
0,0,14,-106,2019,-4,-17,7,51,0,0,0,0,0,0,0,0,0,0,0,
0,0,20,-105,2018,-7,-17,4,51,0,0,0,0,0,0,0,0,0,0,0,
0,0,18,-110,2015,-4,-19,7,45,0,0,0,0,0,0,0,0,0,0,0,
0,0,22,-108,2019,-6,-17,3,51,0,0,0,0,0,0,0,0,0,0,0,
0,0,14,-100,2012,-10,-19,6,41,0,0,0,0,0,0,0,0,0,0,0,
0,0,13,-105,2023,-4,-18,5,52,0,0,0,0,0,0,0,0,0,0,0,
0,0,13,-109,2014,-7,-19,4,34,0,0,0,0,0,0,0,0,0,0,0,
0,0,21,-103,2016,-8,-19,8,53,0,0,0,0,0,0,0,0,0,0,0,
0,0,12,-107,2019,-10,-21,6,37,0,0,0,0,0,0,0,0,0,0,0,
0,0,21,-102,2013,-8,-19,7,50,0,0,0,0,0,0,0,0,0,0,0,
0,0,19,-104,2019,-5,-18,7,56,0,0,0,0,0,0,0,0,0,0,0,
0,0,17,-116,2016,-12,-17,6,32,0,0,0,0,0,0,0,0,0,0,0,
0,0,15,-110,2023,-6,-21,7,46,0,0,0,0,0,0,0,0,0,0,0,
0,0,22,-105,2013,-9,-20,6,45,0,0,0,0,0,0,0,0,0,0,0,
0,0,15,-106,2017,-9,-16,9,48,0,0,0,0,0,0,0,0,0,0,0,
0,0,16,-107,2013,-9,-17,2,36,0,0,0,0,0,0,0,0,0,0,0,
0,0,16,-103,2014,-7,-20,5,43,0,0,0,0,0,0,0,0,0,0,0,
0,0,21,-107,2012,-8,-19,9,46,0,0,0,0,0,0,0,0,0,0,0,
0,0,10,-102,2016,-6,-18,5,43,0,0,0,0,0,0,0,0,0,0,0,
0,0,18,-107,2014,-7,-19,5,42,0,0,0,0,0,0,0,0,0,0,0,
0,0,19,-104,2014,-7,-19,5,46,0,0,0,0,0,0,0,0,0,0,0,
0,0,23,-107,2018,-5,-17,6,56,0,0,0,0,0,0,0,0,0,0,0,
0,0,22,-105,2018,-9,-17,7,54,0,0,0,0,0,0,0,0,0,0,0,
0,0,18,-110,2011,-9,-19,4,33,0,0,0,0,0,0,0,0,0,0,0,
0,0,18,-102,2018,-7,-20,6,51,0,0,0,0,0,0,0,0,0,0,0,
0,0,18,-102,2018,-7,-20,6,51,0,0,0,0,0,0,0,0,0,0,0,
0,0,20,-102,2016,-6,-18,4,52,0,0,0,0,0,0,0,0,0,0,0,
0,0,21,-108,2015,-7,-17,7,49,0,0,0,0,0,0,0,0,0,0,0,
0,0,22,-106,2020,-11,-17,4,50,0,0,0,0,0,0,0,0,0,0,0,
0,0,22,-106,2020,-6,-19,7,56,0,0,0,0,0,0,0,0,0,0,0,
0,0,17,-104,2016,-9,-21,2,39,0,0,0,0,0,0,0,0,0,0,0,
0,0,18,-110,2018,-8,-17,5,44,0,0,0,0,0,0,0,0,0,0,0,
0,0,17,-105,2018,-10,-20,7,45,0,0,0,0,0,0,0,0,0,0,0,
0,0,17,-105,2018,-6,-17,7,52,0,0,0,0,0,0,0,0,0,0,0,
0,0,17,-101,2025,-9,-15,5,60,0,0,0,0,0,0,0,0,0,0,0,
0,0,14,-102,2012,-8,-20,7,41,0,0,0,0,0,0,0,0,0,0,0,
0,0,18,-105,2018,-6,-19,7,51,0,0,0,0,0,0,0,0,0,0,0,
0,0,14,-107,2018,-9,-14,6,46,0,0,0,0,0,0,0,0,0,0,0,
0,0,20,-110,2009,-3,-16,7,45,0,0,0,0,0,0,0,0,0,0,0,
0,0,19,-106,2015,-8,-17,6,47,0,0,0,0,0,0,0,0,0,0,0,
0,0,19,-108,2020,-10,-19,9,49,0,0,0,0,0,0,0,0,0,0,0,
0,0,13,-104,2016,-9,-17,7,44,0,0,0,0,0,0,0,0,0,0,0,
0,0,12,-103,2018,-9,-15,4,45,0,0,0,0,0,0,0,0,0,0,0,
0,0,15,-105,2009,-8,-19,6,36,0,0,0,0,0,0,0,0,0,0,0,
0,0,14,-104,2014,-8,-17,7,44,0,0,0,0,0,0,0,0,0,0,0,
0,0,16,-100,2010,-9,-16,3,42,0,0,0,0,0,0,0,0,0,0,0,
0,0,16,-100,2010,-8,-19,4,41,0,0,0,0,0,0,0,0,0,0,0,
0,0,16,-106,2021,-7,-18,5,49,0,0,0,0,0,0,0,0,0,0,0,
0,0,18,-102,2017,-5,-22,6,50,0,0,0,0,0,0,0,0,0,0,0,
0,0,11,-103,2014,-6,-18,7,43,0,0,0,0,0,0,0,0,0,0,0,
0,0,20,-108,2019,-4,-17,4,52,0,0,0,0,0,0,0,0,0,0,0,
0,0,17,-107,2016,-9,-18,8,45,0,0,0,0,0,0,0,0,0,0,0,
0,0,17,-103,2019,-10,-18,2,45,0,0,0,0,0,0,0,0,0,0,0,
0,0,19,-109,2018,-10,-18,6,44,0,0,0,0,0,0,0,0,0,0,0,
0,0,12,-102,2020,-7,-18,6,49,0,0,0,0,0,0,0,0,0,0,0,
0,0,20,-107,2016,-6,-18,9,52,0,0,0,0,0,0,0,0,0,0,0,
0,0,7,-103,2022,-8,-17,9,48,0,0,0,0,0,0,0,0,0,0,0,
0,0,13,-107,2018,-6,-18,5,43,0,0,0,0,0,0,0,0,0,0,0,
0,0,14,-114,2013,-8,-21,7,29,0,0,0,0,0,0,0,0,0,0,0,
0,0,16,-105,2022,-5,-20,11,57,0,0,0,0,0,0,0,0,0,0,0,
0,0,23,-101,2018,-8,-16,8,62,0,0,0,0,0,0,0,0,0,0,0,
0,0,23,-101,2022,-8,-20,6,60,0,0,0,0,0,0,0,0,0,0,0,
0,0,18,-106,2019,-8,-17,5,49,0,0,0,0,0,0,0,0,0,0,0,
0,0,15,-107,2012,-8,-19,8,39,0,0,0,0,0,0,0,0,0,0,0,
0,0,19,-105,2018,-8,-17,5,50,0,0,0,0,0,0,0,0,0,0,0,
0,0,21,-107,2015,-7,-18,3,45,0,0,0,0,0,0,0,0,0,0,0,
0,0,15,-101,2016,-9,-17,3,45,0,0,0,0,0,0,0,0,0,0,0,
0,0,14,-102,2018,-6,-16,3,49,0,0,0,0,0,0,0,0,0,0,0,
0,0,19,-102,2010,-6,-17,10,52,0,0,0,0,0,0,0,0,0,0,0,
0,0,14,-100,2018,-10,-17,1,44,0,0,0,0,0,0,0,0,0,0,0,
0,0,24,-103,2010,-7,-18,5,49,0,0,0,0,0,0,0,0,0,0,0,
0,0,13,-102,2018,-7,-21,4,43,0,0,0,0,0,0,0,0,0,0,0,
0,0,15,-108,2018,-3,-19,7,48,0,0,0,0,0,0,0,0,0,0,0,
0,0,15,-108,2013,-4,-18,6,42,0,0,0,0,0,0,0,0,0,0,0,
0,0,16,-103,2017,-10,-18,2,42,0,0,0,0,0,0,0,0,0,0,0,
0,0,18,-109,2015,-9,-17,5,41,0,0,0,0,0,0,0,0,0,0,0,
0,0,20,-104,2013,-7,-21,9,48,0,0,0,0,0,0,0,0,0,0,0,
0,0,17,-108,2017,-8,-19,3,40,0,0,0,0,0,0,0,0,0,0,0,
0,0,18,-103,2014,-8,-22,6,43,0,0,0,0,0,0,0,0,0,0,0,
0,0,16,-107,2020,-7,-17,4,47,0,0,0,0,0,0,0,0,0,0,0,
0,0,9,-111,2014,-9,-17,4,28,0,0,0,0,0,0,0,0,0,0,0,
0,0,19,-109,2018,-7,-18,7,48,0,0,0,0,0,0,0,0,0,0,0,
0,0,14,-107,2014,-7,-19,5,38,0,0,0,0,0,0,0,0,0,0,0,
0,0,20,-105,2010,-6,-17,7,47,0,0,0,0,0,0,0,0,0,0,0,
0,0,16,-107,2012,-9,-18,3,35,0,0,0,0,0,0,0,0,0,0,0,
0,0,16,-99,2009,-6,-18,9,49,0,0,0,0,0,0,0,0,0,0,0,
0,0,19,-103,2014,-10,-17,3,44,0,0,0,0,0,0,0,0,0,0,0,
0,0,17,-95,2015,-8,-16,6,57,0,0,0,0,0,0,0,0,0,0,0,
0,0,17,-104,2017,-5,-21,7,49,0,0,0,0,0,0,0,0,0,0,0,
0,0,17,-102,2020,-8,-19,8,54,0,0,0,0,0,0,0,0,0,0,0,
0,0,20,-104,2014,-10,-18,7,47,0,0,0,0,0,0,0,0,0,0,0,
0,0,24,-111,2019,-6,-17,8,55,0,0,0,0,0,0,0,0,0,0,0,
0,0,15,-99,2016,-9,-19,3,45,0,0,0,0,0,0,0,0,0,0,0,
0,0,15,-103,2017,-6,-17,8,52,0,0,0,0,0,0,0,0,0,0,0,
0,0,18,-103,2015,-8,-17,6,49,0,0,0,0,0,0,0,0,0,0,0,
0,0,15,-105,2019,-7,-18,7,49,0,0,0,0,0,0,0,0,0,0,0,
0,0,20,-108,2019,-6,-18,9,54,0,0,0,0,0,0,0,0,0,0,0,
0,0,24,-108,2017,-4,-19,5,53,0,0,0,0,0,0,0,0,0,0,0,
0,0,17,-102,2021,-7,-20,7,54,0,0,0,0,0,0,0,0,0,0,0,
0,0,19,-112,2012,-9,-18,2,32,0,0,0,0,0,0,0,0,0,0,0,
0,0,17,-106,2018,-9,-19,5,44,0,0,0,0,0,0,0,0,0,0,0,
0,0,20,-108,2019,-8,-18,8,51,0,0,0,0,0,0,0,0,0,0,0,
0,0,19,-102,2021,-6,-22,7,55,0,0,0,0,0,0,0,0,0,0,0,
0,0,16,-106,2012,-9,-18,8,41,0,0,0,0,0,0,0,0,0,0,0,
0,0,14,-107,2014,-7,-17,6,41,0,0,0,0,0,0,0,0,0,0,0,
0,0,14,-100,2012,-8,-17,2,41,0,0,0,0,0,0,0,0,0,0,0,
0,0,14,-103,2010,-7,-18,7,41,0,0,0,0,0,0,0,0,0,0,0,
0,0,16,-104,2019,-5,-17,9,56,0,0,0,0,0,0,0,0,0,0,0,
0,0,23,-106,2013,-7,-19,5,47,0,0,0,0,0,0,0,0,0,0,0,
0,0,16,-99,2016,-9,-18,3,47,0,0,0,0,0,0,0,0,0,0,0,
0,0,10,-107,2016,-6,-17,7,41,0,0,0,0,0,0,0,0,0,0,0,
0,0,21,-100,2013,-8,-17,8,55,0,0,0,0,0,0,0,0,0,0,0,
0,0,22,-108,2013,-6,-19,4,44,0,0,0,0,0,0,0,0,0,0,0,
0,0,22,-102,2009,-9,-20,6,44,0,0,0,0,0,0,0,0,0,0,0,
0,0,17,-100,2018,-4,-17,8,60,0,0,0,0,0,0,0,0,0,0,0,
0,0,14,-109,2014,-5,-17,5,40,0,0,0,0,0,0,0,0,0,0,0,
0,0,16,-112,2016,-6,-19,4,37,0,0,0,0,0,0,0,0,0,0,0,
0,0,20,-106,2019,-8,-21,5,47,0,0,0,0,0,0,0,0,0,0,0,
0,0,17,-104,2012,-5,-18,6,46,0,0,0,0,0,0,0,0,0,0,0,
0,0,7,-109,2019,-7,-17,7,38,0,0,0,0,0,0,0,0,0,0,0,
0,0,16,-102,2015,-7,-18,2,44,0,0,0,0,0,0,0,0,0,0,0,
0,0,21,-104,2013,-6,-16,5,51,0,0,0,0,0,0,0,0,0,0,0,
0,0,14,-111,2020,-9,-16,8,44,0,0,0,0,0,0,0,0,0,0,0,
0,0,19,-103,2010,-9,-18,5,42,0,0,0,0,0,0,0,0,0,0,0,
0,0,15,-109,2022,-7,-17,6,48,0,0,0,0,0,0,0,0,0,0,0,
0,0,11,-114,2016,-5,-20,6,32,0,0,0,0,0,0,0,0,0,0,0,
0,0,19,-107,2020,-11,-17,6,48,0,0,0,0,0,0,0,0,0,0,0,
0,0,15,-101,2019,-6,-17,11,59,0,0,0,0,0,0,0,0,0,0,0,
0,0,17,-109,2017,-6,-20,6,43,0,0,0,0,0,0,0,0,0,0,0,
0,0,19,-104,2018,-8,-16,7,54,0,0,0,0,0,0,0,0,0,0,0,
0,0,19,-103,2017,-3,-17,8,59,0,0,0,0,0,0,0,0,0,0,0,
0,0,13,-105,2019,-7,-17,6,47,0,0,0,0,0,0,0,0,0,0,0,
0,0,23,-102,2015,-6,-15,7,60,0,0,0,0,0,0,0,0,0,0,0,
0,0,23,-102,2015,-6,-15,7,60,0,0,0,0,0,0,0,0,0,0,0,
0,0,23,-106,2010,-10,-15,3,43,0,0,0,0,0,0,0,0,0,0,0,
0,0,14,-106,2012,-11,-18,7,36,0,0,0,0,0,0,0,0,0,0,0,
0,0,9,-113,2026,-10,-19,3,34,0,0,0,0,0,0,0,0,0,0,0,
0,0,17,-108,2016,-8,-22,9,42,0,0,0,0,0,0,0,0,0,0,0,
0,0,19,-102,2016,-7,-17,4,51,0,0,0,0,0,0,0,0,0,0,0,
0,0,19,-102,2016,-8,-19,7,51,0,0,0,0,0,0,0,0,0,0,0,
0,0,13,-104,2015,-4,-16,7,49,0,0,0,0,0,0,0,0,0,0,0,
0,0,16,-101,2018,-5,-18,6,54,0,0,0,0,0,0,0,0,0,0,0,
0,0,24,-104,2017,-6,-17,5,57,0,0,0,0,0,0,0,0,0,0,0,
0,0,24,-104,2017,-7,-14,4,58,0,0,0,0,0,0,0,0,0,0,0,
0,0,20,-105,2017,-6,-20,6,50,0,0,0,0,0,0,0,0,0,0,0,
0,0,16,-101,2009,-7,-15,3,43,0,0,0,0,0,0,0,0,0,0,0,
0,0,19,-100,2010,-9,-19,7,46,0,0,0,0,0,0,0,0,0,0,0,
0,0,19,-105,2015,-5,-20,1,43,0,0,0,0,0,0,0,0,0,0,0,
0,0,16,-103,2026,-11,-16,4,54,0,0,0,0,0,0,0,0,0,0,0,
0,0,17,-104,2013,-4,-21,5,44,0,0,0,0,0,0,0,0,0,0,0,
0,0,20,-107,2017,-8,-17,7,50,0,0,0,0,0,0,0,0,0,0,0,
0,0,22,-100,2014,-8,-16,6,56,0,0,0,0,0,0,0,0,0,0,0,
0,0,15,-106,2020,-5,-19,5,48,0,0,0,0,0,0,0,0,0,0,0,
0,0,18,-108,2018,-4,-19,4,47,0,0,0,0,0,0,0,0,0,0,0,
0,0,21,-107,2009,-7,-17,1,38,0,0,0,0,0,0,0,0,0,0,0,
0,0,12,-106,2019,-6,-20,5,42,0,0,0,0,0,0,0,0,0,0,0,
0,0,17,-110,2018,-8,-17,7,45,0,0,0,0,0,0,0,0,0,0,0,
0,0,21,-107,2022,-5,-19,6,56,0,0,0,0,0,0,0,0,0,0,0,
0,0,19,-105,2020,-8,-17,6,53,0,0,0,0,0,0,0,0,0,0,0,
0,0,14,-103,2008,-6,-16,7,42,0,0,0,0,0,0,0,0,0,0,0,
0,0,22,-104,2023,-8,-20,7,58,0,0,0,0,0,0,0,0,0,0,0,
0,0,20,-101,2016,-6,-20,11,58,0,0,0,0,0,0,0,0,0,0,0,
0,0,11,-104,2014,-6,-16,2,39,0,0,0,0,0,0,0,0,0,0,0,
0,0,13,-104,2018,-5,-18,3,45,0,0,0,0,0,0,0,0,0,0,0,
0,0,14,-105,2021,-8,-17,6,49,0,0,0,0,0,0,0,0,0,0,0,
0,0,16,-111,2013,-8,-17,8,39,0,0,0,0,0,0,0,0,0,0,0,
0,0,9,-99,2016,-8,-20,8,44,0,0,0,0,0,0,0,0,0,0,0,
0,0,11,-111,2014,-6,-18,3,31,0,0,0,0,0,0,0,0,0,0,0,
0,0,13,-108,2020,-6,-15,6,48,0,0,0,0,0,0,0,0,0,0,0,
0,0,15,-105,2017,-4,-18,5,48,0,0,0,0,0,0,0,0,0,0,0,
0,0,17,-101,2010,-5,-20,4,43,0,0,0,0,0,0,0,0,0,0,0,
0,0,17,-109,2020,-7,-18,3,44,0,0,0,0,0,0,0,0,0,0,0,
0,0,18,-103,2013,-7,-21,6,44,0,0,0,0,0,0,0,0,0,0,0,
0,0,10,-108,2017,-7,-20,3,33,0,0,0,0,0,0,0,0,0,0,0,
0,0,26,-102,2015,-7,-18,4,56,0,0,0,0,0,0,0,0,0,0,0,
0,0,15,-102,2014,-5,-17,4,47,0,0,0,0,0,0,0,0,0,0,0,
0,0,11,-111,2014,-7,-18,4,31,0,0,0,0,0,0,0,0,0,0,0,
0,0,15,-106,2013,-11,-18,8,39,0,0,0,0,0,0,0,0,0,0,0,
0,0,18,-107,2017,-9,-17,8,48,0,0,0,0,0,0,0,0,0,0,0,
0,0,14,-100,2021,-6,-18,6,55,0,0,0,0,0,0,0,0,0,0,0,
0,0,28,-103,2014,-5,-17,7,62,0,0,0,0,0,0,0,0,0,0,0,
0,0,15,-107,2014,-8,-18,8,42,0,0,0,0,0,0,0,0,0,0,0,
0,0,20,-104,2016,-6,-22,6,48,0,0,0,0,0,0,0,0,0,0,0,
0,0,19,-103,2022,-8,-18,6,56,0,0,0,0,0,0,0,0,0,0,0,
0,0,22,-111,2017,-5,-18,5,48,0,0,0,0,0,0,0,0,0,0,0,
0,0,15,-105,2016,-10,-17,6,43,0,0,0,0,0,0,0,0,0,0,0,
0,0,22,-108,2016,-8,-19,6,47,0,0,0,0,0,0,0,0,0,0,0,
0,0,18,-104,2011,-6,-19,5,43,0,0,0,0,0,0,0,0,0,0,0,
0,0,16,-105,2017,-9,-15,7,49,0,0,0,0,0,0,0,0,0,0,0,
0,0,20,-108,2012,-9,-15,6,44,0,0,0,0,0,0,0,0,0,0,0,
0,0,19,-107,2013,-10,-19,5,39,0,0,0,0,0,0,0,0,0,0,0,
0,0,19,-103,2017,-5,-20,3,49,0,0,0,0,0,0,0,0,0,0,0,
0,0,20,-103,2016,-10,-18,6,49,0,0,0,0,0,0,0,0,0,0,0,
0,0,23,-107,2016,-7,-18,3,48,0,0,0,0,0,0,0,0,0,0,0,
0,0,16,-105,2014,-10,-16,5,42,0,0,0,0,0,0,0,0,0,0,0,
0,0,21,-100,2023,-8,-18,7,63,0,0,0,0,0,0,0,0,0,0,0,
0,0,19,-113,2015,-3,-17,9,48,0,0,0,0,0,0,0,0,0,0,0,
0,0,15,-101,2017,-8,-18,6,49,0,0,0,0,0,0,0,0,0,0,0,
0,0,20,-106,2018,-6,-20,6,50,0,0,0,0,0,0,0,0,0,0,0,
0,0,11,-108,2016,-6,-15,7,43,0,0,0,0,0,0,0,0,0,0,0,
0,0,14,-102,2024,-4,-19,7,58,0,0,0,0,0,0,0,0,0,0,0,
0,0,14,-102,2016,-9,-18,7,46,0,0,0,0,0,0,0,0,0,0,0,
0,0,17,-108,2020,-7,-18,2,44,0,0,0,0,0,0,0,0,0,0,0,
0,0,11,-102,2017,-7,-18,6,45,0,0,0,0,0,0,0,0,0,0,0,
0,0,14,-103,2009,-4,-18,8,44,0,0,0,0,0,0,0,0,0,0,0,
0,0,13,-113,2015,-8,-19,6,32,0,0,0,0,0,0,0,0,0,0,0,
0,0,18,-107,2018,-8,-20,4,43,0,0,0,0,0,0,0,0,0,0,0,
0,0,15,-104,2017,-8,-17,5,46,0,0,0,0,0,0,0,0,0,0,0,
0,0,17,-104,2011,-8,-16,5,43,0,0,0,0,0,0,0,0,0,0,0,
0,0,17,-101,2020,-6,-20,5,53,0,0,0,0,0,0,0,0,0,0,0,
0,0,16,-108,2016,-8,-16,6,44,0,0,0,0,0,0,0,0,0,0,0,
0,0,18,-100,2016,-10,-17,6,51,0,0,0,0,0,0,0,0,0,0,0,
0,0,22,-104,2013,-7,-16,9,55,0,0,0,0,0,0,0,0,0,0,0,
0,0,19,-112,2014,-8,-19,9,41,0,0,0,0,0,0,0,0,0,0,0,
0,0,12,-98,2012,-6,-16,7,49,0,0,0,0,0,0,0,0,0,0,0,
0,0,22,-105,2018,-7,-18,8,56,0,0,0,0,0,0,0,0,0,0,0,
0,0,12,-110,2013,-7,-21,8,33,0,0,0,0,0,0,0,0,0,0,0,
0,0,23,-105,2014,-5,-20,5,50,0,0,0,0,0,0,0,0,0,0,0,
0,0,13,-109,2016,-7,-17,7,41,0,0,0,0,0,0,0,0,0,0,0,
0,0,18,-102,2014,-5,-19,3,47,0,0,0,0,0,0,0,0,0,0,0,
0,0,19,-105,2011,-8,-15,6,46,0,0,0,0,0,0,0,0,0,0,0,
0,0,14,-107,2015,-7,-20,2,35,0,0,0,0,0,0,0,0,0,0,0,
0,0,17,-106,2015,-6,-20,3,41,0,0,0,0,0,0,0,0,0,0,0,
0,0,22,-105,2010,-3,-17,9,54,0,0,0,0,0,0,0,0,0,0,0,
0,0,17,-95,2023,-7,-20,9,65,0,0,0,0,0,0,0,0,0,0,0,
0,0,12,-115,2010,-10,-19,7,23,0,0,0,0,0,0,0,0,0,0,0,
0,0,16,-112,2023,-6,-17,2,44,0,0,0,0,0,0,0,0,0,0,0,
0,0,22,-105,2019,-10,-16,6,54,0,0,0,0,0,0,0,0,0,0,0,
0,0,19,-108,2015,-4,-15,9,54,0,0,0,0,0,0,0,0,0,0,0,
0,0,20,-96,2018,-11,-17,5,57,0,0,0,0,0,0,0,0,0,0,0,
0,0,11,-110,2018,-7,-19,6,37,0,0,0,0,0,0,0,0,0,0,0,
0,0,20,-111,2020,-5,-18,6,50,0,0,0,0,0,0,0,0,0,0,0,
0,0,16,-108,2017,-5,-17,12,53,0,0,0,0,0,0,0,0,0,0,0,
0,0,17,-113,2013,-3,-18,6,40,0,0,0,0,0,0,0,0,0,0,0,
0,0,16,-106,2016,-10,-16,5,43,0,0,0,0,0,0,0,0,0,0,0,
0,0,13,-101,2013,-8,-19,10,46,0,0,0,0,0,0,0,0,0,0,0,
0,0,13,-104,2019,-6,-15,6,51,0,0,0,0,0,0,0,0,0,0,0,
0,0,17,-109,2014,-8,-17,6,41,0,0,0,0,0,0,0,0,0,0,0,
0,0,18,-102,2015,-6,-19,3,47,0,0,0,0,0,0,0,0,0,0,0,
0,0,16,-106,2012,-8,-19,8,41,0,0,0,0,0,0,0,0,0,0,0,
0,0,18,-100,2011,-7,-16,6,50,0,0,0,0,0,0,0,0,0,0,0,
0,0,11,-97,2018,-6,-16,7,55,0,0,0,0,0,0,0,0,0,0,0,
0,0,22,-100,2018,-7,-16,3,58,0,0,0,0,0,0,0,0,0,0,0,
0,0,22,-100,2018,-7,-16,3,58,0,0,0,0,0,0,0,0,0,0,0,
0,0,12,-104,2014,-8,-17,6,41,0,0,0,0,0,0,0,0,0,0,0,
0,0,18,-100,2013,-5,-17,3,50,0,0,0,0,0,0,0,0,0,0,0,
0,0,17,-104,2011,-4,-15,8,51,0,0,0,0,0,0,0,0,0,0,0,
0,0,12,-95,2017,-2,-14,6,62,0,0,0,0,0,0,0,0,0,0,0,
0,0,16,-110,2018,-7,-19,6,42,0,0,0,0,0,0,0,0,0,0,0,
0,0,16,-110,2018,-8,-18,8,44,0,0,0,0,0,0,0,0,0,0,0,
0,0,13,-98,2014,-8,-16,6,49,0,0,0,0,0,0,0,0,0,0,0,
0,0,25,-102,2015,-6,-18,5,57,0,0,0,0,0,0,0,0,0,0,0,
0,0,18,-108,2010,-7,-15,9,45,0,0,0,0,0,0,0,0,0,0,0,
0,0,18,-108,2010,-6,-20,3,35,0,0,0,0,0,0,0,0,0,0,0,
0,0,13,-107,2018,-9,-19,6,40,0,0,0,0,0,0,0,0,0,0,0,
0,0,18,-109,2019,-9,-16,7,48,0,0,0,0,0,0,0,0,0,0,0,
0,0,23,-101,2011,-9,-19,6,49,0,0,0,0,0,0,0,0,0,0,0,
0,0,23,-98,2017,-7,-18,8,63,0,0,0,0,0,0,0,0,0,0,0,
0,0,17,-106,2014,-6,-18,9,48,0,0,0,0,0,0,0,0,0,0,0,
0,0,9,-109,2011,-4,-18,8,35,0,0,0,0,0,0,0,0,0,0,0,
0,0,16,-102,2015,-8,-20,6,45,0,0,0,0,0,0,0,0,0,0,0,
0,0,14,-102,2021,-9,-18,4,48,0,0,0,0,0,0,0,0,0,0,0,
0,0,11,-102,2015,-8,-18,8,44,0,0,0,0,0,0,0,0,0,0,0,
0,0,14,-107,2009,-8,-21,8,33,0,0,0,0,0,0,0,0,0,0,0,
0,0,16,-106,2016,-5,-17,11,53,0,0,0,0,0,0,0,0,0,0,0,
0,0,12,-110,2012,-6,-18,5,33,0,0,0,0,0,0,0,0,0,0,0,
0,0,12,-107,2017,-10,-18,7,39,0,0,0,0,0,0,0,0,0,0,0,
0,0,21,-107,2015,-6,-19,9,51,0,0,0,0,0,0,0,0,0,0,0,
0,0,19,-109,2013,-9,-19,5,38,0,0,0,0,0,0,0,0,0,0,0,
0,0,19,-99,2010,-5,-18,7,52,0,0,0,0,0,0,0,0,0,0,0,
0,0,19,-104,2014,-2,-19,5,51,0,0,0,0,0,0,0,0,0,0,0,
0,0,16,-108,2014,-5,-17,5,43,0,0,0,0,0,0,0,0,0,0,0,
0,0,22,-111,2017,-8,-19,7,46,0,0,0,0,0,0,0,0,0,0,0,
0,0,21,-97,2013,-5,-18,8,60,0,0,0,0,0,0,0,0,0,0,0,
0,0,24,-106,2009,-8,-18,4,43,0,0,0,0,0,0,0,0,0,0,0,
0,0,15,-110,2020,-6,-18,6,45,0,0,0,0,0,0,0,0,0,0,0,
0,0,19,-113,2010,-8,-18,5,33,0,0,0,0,0,0,0,0,0,0,0,
0,0,22,-108,2020,-4,-18,6,56,0,0,0,0,0,0,0,0,0,0,0,
0,0,17,-108,2019,-9,-18,7,46,0,0,0,0,0,0,0,0,0,0,0,
0,0,20,-103,2013,-8,-16,6,50,0,0,0,0,0,0,0,0,0,0,0,
0,0,21,-114,2007,-7,-18,6,33,0,0,0,0,0,0,0,0,0,0,0,
0,0,19,-111,2009,-8,-19,3,31,0,0,0,0,0,0,0,0,0,0,0,
0,0,19,-99,2017,-6,-20,6,55,0,0,0,0,0,0,0,0,0,0,0,
0,0,13,-105,2019,-7,-20,5,43,0,0,0,0,0,0,0,0,0,0,0,
0,0,16,-104,2015,-5,-20,5,45,0,0,0,0,0,0,0,0,0,0,0,
0,0,16,-109,2015,-8,-18,5,39,0,0,0,0,0,0,0,0,0,0,0,
0,0,19,-105,2016,-8,-19,7,48,0,0,0,0,0,0,0,0,0,0,0,
0,0,20,-109,2010,-6,-21,6,38,0,0,0,0,0,0,0,0,0,0,0,
0,0,16,-111,2019,-6,-21,3,38,0,0,0,0,0,0,0,0,0,0,0,
0,0,21,-109,2016,-10,-20,7,43,0,0,0,0,0,0,0,0,0,0,0,
0,0,21,-107,2018,-5,-16,6,55,0,0,0,0,0,0,0,0,0,0,0,
0,0,11,-103,2018,-8,-15,7,48,0,0,0,0,0,0,0,0,0,0,0,
0,0,15,-109,2018,-8,-13,2,43,0,0,0,0,0,0,0,0,0,0,0,
0,0,14,-106,2018,-7,-19,5,43,0,0,0,0,0,0,0,0,0,0,0,
0,0,15,-105,2009,-5,-19,7,40,0,0,0,0,0,0,0,0,0,0,0,
0,0,15,-110,2010,-7,-18,3,31,0,0,0,0,0,0,0,0,0,0,0,
0,0,11,-101,2009,-6,-18,2,35,0,0,0,0,0,0,0,0,0,0,0,
0,0,18,-105,2014,-7,-16,6,48,0,0,0,0,0,0,0,0,0,0,0,
0,0,18,-102,2012,-6,-16,6,50,0,0,0,0,0,0,0,0,0,0,0,
0,0,21,-102,2019,-9,-20,1,48,0,0,0,0,0,0,0,0,0,0,0,
0,0,11,-105,2022,-7,-18,3,44,0,0,0,0,0,0,0,0,0,0,0,
0,0,15,-102,2021,-4,-17,7,58,0,0,0,0,0,0,0,0,0,0,0,
0,0,25,-112,2014,-4,-19,10,52,0,0,0,0,0,0,0,0,0,0,0,
0,0,12,-103,2016,-10,-17,5,41,0,0,0,0,0,0,0,0,0,0,0,
0,0,15,-104,2014,-7,-18,4,42,0,0,0,0,0,0,0,0,0,0,0,
0,0,19,-111,2016,-5,-20,9,46,0,0,0,0,0,0,0,0,0,0,0,
0,0,21,-105,2022,-8,-17,7,58,0,0,0,0,0,0,0,0,0,0,0,
0,0,9,-99,2020,-4,-17,4,51,0,0,0,0,0,0,0,0,0,0,0,
0,0,9,-104,2016,-10,-18,6,37,0,0,0,0,0,0,0,0,0,0,0,
0,0,16,-105,2018,-5,-19,5,48,0,0,0,0,0,0,0,0,0,0,0,
0,0,18,-105,2022,-8,-19,6,52,0,0,0,0,0,0,0,0,0,0,0,
0,0,14,-103,2011,-9,-14,7,44,0,0,0,0,0,0,0,0,0,0,0,
0,0,18,-103,2018,-7,-19,9,54,0,0,0,0,0,0,0,0,0,0,0,
0,0,14,-105,2018,-8,-17,6,46,0,0,0,0,0,0,0,0,0,0,0,
0,0,11,-108,2017,-6,-17,5,40,0,0,0,0,0,0,0,0,0,0,0,
0,0,18,-100,2018,-6,-18,6,56,0,0,0,0,0,0,0,0,0,0,0,
0,0,15,-104,2018,-8,-20,3,42,0,0,0,0,0,0,0,0,0,0,0,
0,0,20,-96,2016,-7,-16,5,60,0,0,0,0,0,0,0,0,0,0,0,
0,0,10,-108,2012,-10,-18,7,31,0,0,0,0,0,0,0,0,0,0,0,
0,0,18,-100,2018,-5,-19,10,60,0,0,0,0,0,0,0,0,0,0,0,
0,0,23,-108,2022,-7,-18,8,58,0,0,0,0,0,0,0,0,0,0,0,
0,0,12,-108,2017,-12,-18,7,36,0,0,0,0,0,0,0,0,0,0,0,
0,0,18,-107,2018,-7,-16,6,50,0,0,0,0,0,0,0,0,0,0,0,
0,0,15,-112,2010,-7,-16,8,36,0,0,0,0,0,0,0,0,0,0,0,
0,0,16,-112,2013,-7,-21,2,29,0,0,0,0,0,0,0,0,0,0,0,
0,0,16,-106,2005,-7,-15,6,37,0,0,0,0,0,0,0,0,0,0,0,
0,0,13,-109,2018,-4,-17,9,48,0,0,0,0,0,0,0,0,0,0,0,
0,0,11,-107,2022,-9,-17,4,42,0,0,0,0,0,0,0,0,0,0,0,
0,0,18,-103,2016,-9,-16,5,49,0,0,0,0,0,0,0,0,0,0,0,
0,0,20,-111,2016,-9,-18,7,43,0,0,0,0,0,0,0,0,0,0,0,
0,0,20,-107,2021,-7,-17,7,55,0,0,0,0,0,0,0,0,0,0,0,
0,0,13,-115,2012,-7,-17,5,29,0,0,0,0,0,0,0,0,0,0,0,
0,0,17,-107,2017,-5,-16,7,51,0,0,0,0,0,0,0,0,0,0,0,
0,0,12,-109,2019,-6,-17,4,41,0,0,0,0,0,0,0,0,0,0,0,
0,0,15,-106,2011,-9,-18,11,42,0,0,0,0,0,0,0,0,0,0,0,
0,0,19,-109,2013,-5,-17,6,45,0,0,0,0,0,0,0,0,0,0,0,
0,0,15,-108,2017,-8,-20,6,40,0,0,0,0,0,0,0,0,0,0,0,
0,0,21,-99,2018,-9,-18,5,56,0,0,0,0,0,0,0,0,0,0,0,
0,0,17,-111,2017,-7,-17,7,44,0,0,0,0,0,0,0,0,0,0,0,
0,0,18,-103,2009,-6,-17,7,46,0,0,0,0,0,0,0,0,0,0,0,
0,0,17,-106,2017,-5,-19,8,50,0,0,0,0,0,0,0,0,0,0,0,
0,0,23,-102,2009,-8,-20,6,46,0,0,0,0,0,0,0,0,0,0,0,
0,0,18,-103,2019,-9,-19,6,50,0,0,0,0,0,0,0,0,0,0,0,
0,0,11,-108,2013,-2,-18,6,40,0,0,0,0,0,0,0,0,0,0,0,
0,0,17,-96,2014,-9,-17,5,52,0,0,0,0,0,0,0,0,0,0,0,
0,0,18,-104,2015,-4,-20,9,52,0,0,0,0,0,0,0,0,0,0,0,
0,0,17,-102,2019,-7,-18,5,52,0,0,0,0,0,0,0,0,0,0,0,
0,0,19,-104,2019,-8,-17,6,53,0,0,0,0,0,0,0,0,0,0,0,
0,0,14,-100,2013,-6,-18,7,48,0,0,0,0,0,0,0,0,0,0,0,
0,0,21,-110,2014,-7,-21,6,41,0,0,0,0,0,0,0,0,0,0,0,
0,0,11,-101,2014,-7,-16,6,45,0,0,0,0,0,0,0,0,0,0,0,
0,0,11,-101,2014,-7,-16,6,45,0,0,0,0,0,0,0,0,0,0,0,
0,0,10,-107,2019,-7,-18,6,41,0,0,0,0,0,0,0,0,0,0,0,
0,0,14,-102,2018,-7,-18,5,48,0,0,0,0,0,0,0,0,0,0,0,
0,0,12,-108,2018,-4,-17,8,47,0,0,0,0,0,0,0,0,0,0,0,
0,0,18,-105,2016,-3,-18,6,52,0,0,0,0,0,0,0,0,0,0,0,
0,0,18,-103,2018,-5,-18,6,54,0,0,0,0,0,0,0,0,0,0,0,
0,0,20,-95,2013,-3,-19,7,61,0,0,0,0,0,0,0,0,0,0,0,
0,0,20,-95,2013,-5,-17,5,59,0,0,0,0,0,0,0,0,0,0,0,
0,0,19,-106,2015,-11,-19,8,44,0,0,0,0,0,0,0,0,0,0,0,
0,0,19,-110,2020,-3,-17,7,54,0,0,0,0,0,0,0,0,0,0,0,
0,0,18,-105,2019,-8,-17,4,49,0,0,0,0,0,0,0,0,0,0,0,
0,0,7,-109,2018,-6,-16,7,39,0,0,0,0,0,0,0,0,0,0,0,
0,0,17,-106,2016,-8,-17,5,45,0,0,0,0,0,0,0,0,0,0,0,
0,0,16,-95,2019,-6,-19,6,59,0,0,0,0,0,0,0,0,0,0,0,
0,0,12,-107,2012,-9,-22,3,27,0,0,0,0,0,0,0,0,0,0,0,
0,0,19,-104,2017,-4,-17,8,57,0,0,0,0,0,0,0,0,0,0,0,
0,0,15,-102,2005,-10,-17,7,36,0,0,0,0,0,0,0,0,0,0,0,
0,0,19,-101,2010,-10,-18,5,43,0,0,0,0,0,0,0,0,0,0,0,
0,0,21,-108,2011,-9,-17,6,42,0,0,0,0,0,0,0,0,0,0,0,
0,0,19,-106,2017,-9,-18,7,48,0,0,0,0,0,0,0,0,0,0,0,
0,0,16,-110,2021,-8,-15,8,50,0,0,0,0,0,0,0,0,0,0,0,
0,0,29,-97,2013,-5,-19,5,64,0,0,0,0,0,0,0,0,0,0,0,
0,0,21,-105,2010,-9,-21,6,40,0,0,0,0,0,0,0,0,0,0,0,
0,0,16,-105,2009,-8,-20,5,35,0,0,0,0,0,0,0,0,0,0,0,
0,0,14,-99,2017,-7,-17,4,50,0,0,0,0,0,0,0,0,0,0,0,
0,0,19,-103,2019,-5,-17,6,57,0,0,0,0,0,0,0,0,0,0,0,
0,0,18,-102,2014,-8,-19,3,44,0,0,0,0,0,0,0,0,0,0,0,
0,0,16,-108,2015,-9,-17,4,39,0,0,0,0,0,0,0,0,0,0,0,
0,0,21,-96,2012,-6,-17,9,61,0,0,0,0,0,0,0,0,0,0,0,
0,0,18,-110,2016,-5,-16,7,48,0,0,0,0,0,0,0,0,0,0,0,
0,0,14,-101,2012,-9,-16,4,42,0,0,0,0,0,0,0,0,0,0,0,
0,0,19,-108,2021,-5,-16,6,55,0,0,0,0,0,0,0,0,0,0,0,
0,0,11,-105,2017,-5,-17,6,45,0,0,0,0,0,0,0,0,0,0,0,
0,0,24,-105,2014,-4,-18,7,56,0,0,0,0,0,0,0,0,0,0,0,
0,0,23,-104,2013,-5,-20,6,51,0,0,0,0,0,0,0,0,0,0,0,
0,0,18,-101,2013,-6,-17,6,51,0,0,0,0,0,0,0,0,0,0,0,
0,0,24,-106,2016,-7,-18,5,52,0,0,0,0,0,0,0,0,0,0,0,
0,0,18,-109,2018,-7,-20,5,43,0,0,0,0,0,0,0,0,0,0,0,
0,0,19,-108,2018,-7,-18,4,46,0,0,0,0,0,0,0,0,0,0,0,
0,0,22,-99,2018,-5,-16,6,64,0,0,0,0,0,0,0,0,0,0,0,
0,0,21,-101,2011,-8,-19,5,47,0,0,0,0,0,0,0,0,0,0,0,
0,0,17,-107,2017,-6,-18,4,45,0,0,0,0,0,0,0,0,0,0,0,
0,0,19,-94,2015,-7,-16,5,60,0,0,0,0,0,0,0,0,0,0,0,
0,0,23,-104,2011,-7,-19,6,48,0,0,0,0,0,0,0,0,0,0,0,
0,0,13,-93,2022,-6,-18,6,62,0,0,0,0,0,0,0,0,0,0,0,
0,0,17,-102,2015,-6,-20,5,47,0,0,0,0,0,0,0,0,0,0,0,
0,0,13,-105,2014,-7,-19,3,37,0,0,0,0,0,0,0,0,0,0,0,
0,0,19,-115,2015,-6,-16,6,41,0,0,0,0,0,0,0,0,0,0,0,
0,0,23,-101,2017,-7,-20,9,59,0,0,0,0,0,0,0,0,0,0,0,
0,0,15,-105,2012,-8,-19,7,40,0,0,0,0,0,0,0,0,0,0,0,
0,0,14,-104,2017,-4,-19,7,49,0,0,0,0,0,0,0,0,0,0,0,
0,0,21,-109,2014,-6,-19,9,48,0,0,0,0,0,0,0,0,0,0,0,
0,0,15,-107,2021,-6,-16,4,49,0,0,0,0,0,0,0,0,0,0,0,
0,0,17,-107,2014,-8,-18,4,40,0,0,0,0,0,0,0,0,0,0,0,
0,0,16,-100,2017,-8,-20,8,51,0,0,0,0,0,0,0,0,0,0,0,
0,0,16,-107,2012,-2,-17,5,45,0,0,0,0,0,0,0,0,0,0,0,
0,0,22,-102,2026,-7,-23,8,62,0,0,0,0,0,0,0,0,0,0,0,
0,0,17,-103,2012,-6,-16,6,48,0,0,0,0,0,0,0,0,0,0,0,
0,0,17,-110,2010,-7,-17,3,34,0,0,0,0,0,0,0,0,0,0,0,
0,0,14,-100,2014,-8,-17,3,44,0,0,0,0,0,0,0,0,0,0,0,
0,0,15,-103,2016,-7,-15,7,51,0,0,0,0,0,0,0,0,0,0,0,
0,0,21,-98,2015,-7,-20,6,55,0,0,0,0,0,0,0,0,0,0,0,
0,0,18,-99,2016,-3,-21,6,55,0,0,0,0,0,0,0,0,0,0,0,
0,0,18,-104,2018,-6,-19,6,51,0,0,0,0,0,0,0,0,0,0,0,
0,0,19,-107,2012,-4,-15,8,51,0,0,0,0,0,0,0,0,0,0,0,
0,0,13,-101,2020,-7,-19,5,49,0,0,0,0,0,0,0,0,0,0,0,
0,0,16,-101,2021,-8,-18,2,50,0,0,0,0,0,0,0,0,0,0,0,
0,0,21,-111,2014,-7,-17,4,42,0,0,0,0,0,0,0,0,0,0,0,
0,0,19,-105,2017,-5,-18,10,56,0,0,0,0,0,0,0,0,0,0,0,
0,0,16,-107,2023,-6,-18,8,54,0,0,0,0,0,0,0,0,0,0,0,
0,0,11,-105,2019,-3,-19,8,49,0,0,0,0,0,0,0,0,0,0,0,
0,0,16,-100,2016,-5,-18,4,51,0,0,0,0,0,0,0,0,0,0,0,
0,0,12,-115,2016,-9,-19,6,29,0,0,0,0,0,0,0,0,0,0,0,
0,0,17,-103,2022,-9,-18,10,57,0,0,0,0,0,0,0,0,0,0,0,
0,0,24,-103,2014,-7,-18,7,55,0,0,0,0,0,0,0,0,0,0,0,
0,0,11,-112,2018,-8,-16,7,38,0,0,0,0,0,0,0,0,0,0,0,
0,0,17,-106,2016,-7,-17,4,45,0,0,0,0,0,0,0,0,0,0,0,
0,0,20,-107,2019,-9,-18,3,46,0,0,0,0,0,0,0,0,0,0,0,
0,0,17,-112,2013,-6,-19,7,38,0,0,0,0,0,0,0,0,0,0,0,
0,0,14,-104,2010,-8,-17,7,40,0,0,0,0,0,0,0,0,0,0,0,
0,0,20,-109,2013,-9,-16,7,44,0,0,0,0,0,0,0,0,0,0,0,
0,0,17,-103,2005,-8,-18,4,35,0,0,0,0,0,0,0,0,0,0,0,
0,0,22,-105,2016,-7,-18,5,51,0,0,0,0,0,0,0,0,0,0,0,
0,0,18,-106,2014,-8,-21,6,41,0,0,0,0,0,0,0,0,0,0,0,
0,0,16,-105,2015,-4,-15,5,50,0,0,0,0,0,0,0,0,0,0,0,
0,0,22,-101,2014,-7,-18,5,53,0,0,0,0,0,0,0,0,0,0,0,
0,0,14,-101,2015,-8,-20,5,43,0,0,0,0,0,0,0,0,0,0,0,
0,0,13,-106,2016,-6,-17,7,45,0,0,0,0,0,0,0,0,0,0,0,
0,0,14,-107,2014,-8,-18,3,36,0,0,0,0,0,0,0,0,0,0,0,
0,0,19,-101,2015,-7,-17,4,51,0,0,0,0,0,0,0,0,0,0,0,
0,0,26,-106,2014,-7,-18,6,53,0,0,0,0,0,0,0,0,0,0,0,
0,0,26,-103,2013,-12,-20,7,49,0,0,0,0,0,0,0,0,0,0,0,
0,0,20,-110,2025,-5,-16,7,59,0,0,0,0,0,0,0,0,0,0,0,
0,0,21,-106,2011,-8,-19,5,42,0,0,0,0,0,0,0,0,0,0,0,
0,0,26,-105,2016,-6,-20,6,55,0,0,0,0,0,0,0,0,0,0,0,
0,0,19,-101,2017,-7,-18,6,54,0,0,0,0,0,0,0,0,0,0,0,
0,0,16,-102,2017,-4,-17,1,49,0,0,0,0,0,0,0,0,0,0,0,
0,0,22,-102,2013,-7,-15,5,54,0,0,0,0,0,0,0,0,0,0,0,
0,0,22,-99,2010,-8,-20,5,48,0,0,0,0,0,0,0,0,0,0,0,
0,0,21,-104,2017,-6,-17,7,56,0,0,0,0,0,0,0,0,0,0,0,
0,0,22,-106,2016,-7,-19,6,50,0,0,0,0,0,0,0,0,0,0,0,
0,0,19,-107,2010,-7,-20,4,37,0,0,0,0,0,0,0,0,0,0,0,
0,0,19,-105,2016,-6,-22,6,46,0,0,0,0,0,0,0,0,0,0,0,
0,0,15,-107,2019,-9,-17,7,46,0,0,0,0,0,0,0,0,0,0,0,
0,0,19,-103,2021,-9,-19,5,52,0,0,0,0,0,0,0,0,0,0,0,
0,0,15,-115,2016,-10,-18,3,29,0,0,0,0,0,0,0,0,0,0,0,
0,0,12,-107,2013,-8,-15,5,38,0,0,0,0,0,0,0,0,0,0,0,
0,0,12,-107,2013,-8,-15,5,38,0,0,0,0,0,0,0,0,0,0,0,
0,0,16,-109,2019,-6,-19,9,48,0,0,0,0,0,0,0,0,0,0,0,
0,0,15,-104,2013,-7,-20,5,40,0,0,0,0,0,0,0,0,0,0,0,
0,0,12,-102,2013,-5,-19,5,42,0,0,0,0,0,0,0,0,0,0,0,
0,0,12,-102,2013,-5,-19,5,42,0,0,0,0,0,0,0,0,0,0,0,
0,0,20,-104,2017,-8,-17,7,53,0,0,0,0,0,0,0,0,0,0,0,
0,0,12,-109,2013,-2,-16,6,42,0,0,0,0,0,0,0,0,0,0,0,
0,0,15,-107,2013,-9,-21,8,37,0,0,0,0,0,0,0,0,0,0,0,
0,0,15,-107,2013,-5,-18,10,46,0,0,0,0,0,0,0,0,0,0,0,
0,0,16,-102,2020,-5,-21,8,54,0,0,0,0,0,0,0,0,0,0,0,
0,0,14,-108,2019,-5,-19,5,44,0,0,0,0,0,0,0,0,0,0,0,
0,0,16,-106,2021,-7,-19,5,48,0,0,0,0,0,0,0,0,0,0,0,
0,0,13,-105,2015,-6,-21,8,42,0,0,0,0,0,0,0,0,0,0,0,
0,0,17,-96,2013,-7,-20,7,52,0,0,0,0,0,0,0,0,0,0,0,
0,0,12,-104,2015,-7,-19,5,40,0,0,0,0,0,0,0,0,0,0,0,
0,0,19,-107,2004,-5,-18,4,35,0,0,0,0,0,0,0,0,0,0,0,
0,0,24,-95,2010,-5,-18,8,62,0,0,0,0,0,0,0,0,0,0,0,
0,0,20,-101,2012,-6,-16,5,52,0,0,0,0,0,0,0,0,0,0,0,
0,0,17,-104,2020,-6,-20,8,53,0,0,0,0,0,0,0,0,0,0,0,
0,0,18,-101,2016,-11,-18,9,51,0,0,0,0,0,0,0,0,0,0,0,
0,0,14,-109,2012,-2,-18,5,40,0,0,0,0,0,0,0,0,0,0,0,
0,0,17,-103,2019,-6,-17,6,54,0,0,0,0,0,0,0,0,0,0,0,
0,0,18,-111,2014,-9,-19,6,37,0,0,0,0,0,0,0,0,0,0,0,
0,0,15,-103,2023,-10,-18,7,52,0,0,0,0,0,0,0,0,0,0,0,
0,0,17,-104,2013,-6,-19,9,48,0,0,0,0,0,0,0,0,0,0,0,
0,0,14,-105,2021,-7,-18,2,45,0,0,0,0,0,0,0,0,0,0,0,
0,0,20,-102,2014,-6,-14,6,56,0,0,0,0,0,0,0,0,0,0,0,
0,0,12,-109,2011,-9,-17,8,34,0,0,0,0,0,0,0,0,0,0,0,
0,0,16,-103,2013,-7,-21,5,41,0,0,0,0,0,0,0,0,0,0,0,
0,0,18,-105,2014,-7,-22,10,46,0,0,0,0,0,0,0,0,0,0,0,
0,0,18,-111,2018,-8,-19,4,40,0,0,0,0,0,0,0,0,0,0,0,
0,0,11,-105,2011,-5,-18,7,39,0,0,0,0,0,0,0,0,0,0,0,
0,0,18,-108,2011,-6,-17,6,42,0,0,0,0,0,0,0,0,0,0,0,
0,0,17,-110,2019,-7,-16,5,46,0,0,0,0,0,0,0,0,0,0,0,
0,0,23,-114,2010,-8,-15,8,42,0,0,0,0,0,0,0,0,0,0,0,
0,0,15,-97,2013,-8,-19,8,50,0,0,0,0,0,0,0,0,0,0,0,
0,0,18,-107,2008,-6,-15,4,40,0,0,0,0,0,0,0,0,0,0,0,
0,0,13,-108,2016,-5,-18,5,41,0,0,0,0,0,0,0,0,0,0,0,
0,0,19,-103,2013,-9,-17,5,46,0,0,0,0,0,0,0,0,0,0,0,
0,0,21,-110,2013,-10,-22,5,35,0,0,0,0,0,0,0,0,0,0,0,
0,0,18,-104,2014,-5,-19,7,49,0,0,0,0,0,0,0,0,0,0,0,
0,0,13,-103,2014,-6,-20,4,40,0,0,0,0,0,0,0,0,0,0,0,
0,0,17,-103,2013,-7,-18,4,44,0,0,0,0,0,0,0,0,0,0,0,
0,0,16,-103,2014,-8,-19,6,44,0,0,0,0,0,0,0,0,0,0,0,
0,0,18,-109,2014,-4,-17,7,47,0,0,0,0,0,0,0,0,0,0,0,
0,0,21,-107,2018,-6,-16,5,53,0,0,0,0,0,0,0,0,0,0,0,
0,0,13,-108,2018,-8,-20,4,37,0,0,0,0,0,0,0,0,0,0,0,
0,0,17,-110,2014,-11,-17,8,39,0,0,0,0,0,0,0,0,0,0,0,
0,0,24,-109,2012,-8,-18,4,43,0,0,0,0,0,0,0,0,0,0,0,
0,0,15,-109,2019,-7,-17,9,48,0,0,0,0,0,0,0,0,0,0,0,
0,0,14,-105,2015,-3,-18,7,48,0,0,0,0,0,0,0,0,0,0,0,
0,0,11,-106,2009,-9,-20,10,33,0,0,0,0,0,0,0,0,0,0,0,
0,0,17,-105,2017,-6,-18,7,50,0,0,0,0,0,0,0,0,0,0,0,
0,0,11,-107,2018,-8,-20,1,33,0,0,0,0,0,0,0,0,0,0,0,
0,0,12,-100,2016,-7,-19,2,42,0,0,0,0,0,0,0,0,0,0,0,
0,0,11,-107,2011,-6,-18,8,37,0,0,0,0,0,0,0,0,0,0,0,
0,0,17,-110,2016,-8,-18,4,39,0,0,0,0,0,0,0,0,0,0,0,
0,0,16,-104,2012,-11,-21,5,35,0,0,0,0,0,0,0,0,0,0,0,
0,0,18,-92,2005,-4,-16,10,59,0,0,0,0,0,0,0,0,0,0,0,
0,0,15,-111,2012,-7,-18,7,36,0,0,0,0,0,0,0,0,0,0,0,
0,0,20,-103,2018,-8,-20,6,51,0,0,0,0,0,0,0,0,0,0,0,
0,0,18,-106,2015,-7,-15,9,52,0,0,0,0,0,0,0,0,0,0,0,
0,0,19,-105,2018,-5,-21,7,51,0,0,0,0,0,0,0,0,0,0,0,
0,0,21,-108,2021,-9,-18,8,53,0,0,0,0,0,0,0,0,0,0,0,
0,0,23,-101,2013,-8,-19,8,54,0,0,0,0,0,0,0,0,0,0,0,
0,0,15,-104,2017,-8,-16,7,49,0,0,0,0,0,0,0,0,0,0,0,
0,0,14,-102,2016,-6,-16,6,50,0,0,0,0,0,0,0,0,0,0,0,
0,0,15,-94,2016,-8,-19,4,52,0,0,0,0,0,0,0,0,0,0,0,
0,0,27,-106,2017,-6,-17,5,58,0,0,0,0,0,0,0,0,0,0,0,
0,0,19,-105,2012,-6,-20,5,43,0,0,0,0,0,0,0,0,0,0,0,
0,0,14,-109,2011,-1,-17,6,42,0,0,0,0,0,0,0,0,0,0,0,
0,0,15,-101,2018,-10,-18,7,49,0,0,0,0,0,0,0,0,0,0,0,
0,0,20,-111,2010,-9,-21,6,33,0,0,0,0,0,0,0,0,0,0,0,
0,0,16,-101,2020,-5,-22,8,54,0,0,0,0,0,0,0,0,0,0,0,
0,0,19,-105,2014,-6,-18,7,49,0,0,0,0,0,0,0,0,0,0,0,
0,0,18,-100,2011,-8,-17,7,49,0,0,0,0,0,0,0,0,0,0,0,
0,0,23,-99,2014,-10,-20,6,52,0,0,0,0,0,0,0,0,0,0,0,
0,0,21,-108,2015,-9,-20,4,41,0,0,0,0,0,0,0,0,0,0,0,
0,0,18,-108,2018,-6,-17,6,49,0,0,0,0,0,0,0,0,0,0,0,
0,0,17,-107,2018,-6,-18,7,49,0,0,0,0,0,0,0,0,0,0,0,
0,0,14,-112,2018,-5,-18,5,40,0,0,0,0,0,0,0,0,0,0,0,
0,0,14,-101,2015,-8,-19,8,47,0,0,0,0,0,0,0,0,0,0,0,
0,0,19,-104,2014,-6,-19,5,47,0,0,0,0,0,0,0,0,0,0,0,
0,0,20,-105,2019,-6,-14,8,60,0,0,0,0,0,0,0,0,0,0,0,
0,0,11,-109,2013,-6,-17,6,36,0,0,0,0,0,0,0,0,0,0,0,
0,0,15,-102,2017,-8,-19,6,47,0,0,0,0,0,0,0,0,0,0,0,
0,0,18,-110,2013,-9,-20,6,36,0,0,0,0,0,0,0,0,0,0,0,
0,0,14,-106,2020,-5,-18,5,48,0,0,0,0,0,0,0,0,0,0,0,
0,0,24,-107,2017,-9,-17,4,50,0,0,0,0,0,0,0,0,0,0,0,
0,0,18,-106,2012,-5,-20,4,41,0,0,0,0,0,0,0,0,0,0,0,
0,0,10,-105,2019,-10,-18,5,39,0,0,0,0,0,0,0,0,0,0,0,
0,0,12,-105,2013,-5,-19,6,40,0,0,0,0,0,0,0,0,0,0,0,
0,0,14,-105,2021,-5,-18,6,51,0,0,0,0,0,0,0,0,0,0,0,
0,0,17,-94,2012,-9,-20,4,48,0,0,0,0,0,0,0,0,0,0,0,
0,0,22,-108,2015,-8,-19,5,45,0,0,0,0,0,0,0,0,0,0,0,
0,0,18,-101,2011,-6,-17,8,51,0,0,0,0,0,0,0,0,0,0,0,
0,0,15,-108,2015,-9,-19,5,37,0,0,0,0,0,0,0,0,0,0,0,
0,0,14,-104,2016,-9,-18,7,44,0,0,0,0,0,0,0,0,0,0,0,
0,0,22,-104,2012,-10,-18,8,48,0,0,0,0,0,0,0,0,0,0,0,
0,0,17,-100,2014,-8,-15,9,55,0,0,0,0,0,0,0,0,0,0,0,
0,0,22,-108,2015,-6,-17,5,49,0,0,0,0,0,0,0,0,0,0,0,
0,0,19,-112,2021,-7,-17,5,47,0,0,0,0,0,0,0,0,0,0,0,
0,0,23,-101,2015,-6,-18,8,59,0,0,0,0,0,0,0,0,0,0,0,
0,0,22,-106,2015,-9,-14,6,52,0,0,0,0,0,0,0,0,0,0,0,
0,0,12,-100,2014,-7,-18,6,45,0,0,0,0,0,0,0,0,0,0,0,
0,0,27,-108,2009,-4,-16,6,52,0,0,0,0,0,0,0,0,0,0,0,
0,0,23,-108,2014,-8,-20,10,49,0,0,0,0,0,0,0,0,0,0,0,
0,0,15,-107,2012,-6,-18,9,43,0,0,0,0,0,0,0,0,0,0,0,
0,0,19,-103,2009,-7,-18,5,43,0,0,0,0,0,0,0,0,0,0,0,
0,0,18,-98,2017,-8,-17,7,57,0,0,0,0,0,0,0,0,0,0,0,
0,0,22,-101,2016,-8,-17,7,57,0,0,0,0,0,0,0,0,0,0,0,
0,0,22,-101,2016,-10,-20,5,50,0,0,0,0,0,0,0,0,0,0,0,
0,0,14,-97,2017,-8,-17,5,52,0,0,0,0,0,0,0,0,0,0,0,
0,0,20,-103,2023,-9,-20,6,55,0,0,0,0,0,0,0,0,0,0,0,
0,0,16,-107,2025,-9,-16,6,53,0,0,0,0,0,0,0,0,0,0,0,
0,0,16,-107,2025,-6,-20,7,53,0,0,0,0,0,0,0,0,0,0,0,
0,0,16,-106,2016,-8,-21,7,42,0,0,0,0,0,0,0,0,0,0,0,
0,0,18,-102,2013,-8,-18,6,47,0,0,0,0,0,0,0,0,0,0,0,
0,0,12,-107,2016,-6,-16,6,43,0,0,0,0,0,0,0,0,0,0,0,
0,0,12,-107,2016,-7,-19,3,36,0,0,0,0,0,0,0,0,0,0,0,
0,0,11,-106,2015,-5,-18,6,41,0,0,0,0,0,0,0,0,0,0,0,
0,0,21,-106,2016,-6,-21,8,50,0,0,0,0,0,0,0,0,0,0,0,
0,0,14,-105,2013,-6,-17,9,46,0,0,0,0,0,0,0,0,0,0,0,
0,0,14,-105,2012,-6,-18,6,41,0,0,0,0,0,0,0,0,0,0,0,
0,0,17,-100,2020,-6,-19,4,54,0,0,0,0,0,0,0,0,0,0,0,
0,0,17,-102,2012,-5,-19,2,43,0,0,0,0,0,0,0,0,0,0,0,
0,0,15,-107,2023,-3,-18,5,53,0,0,0,0,0,0,0,0,0,0,0,
0,0,20,-108,2008,-9,-19,6,36,0,0,0,0,0,0,0,0,0,0,0,
0,0,14,-108,2015,-11,-17,6,37,0,0,0,0,0,0,0,0,0,0,0,
0,0,21,-102,2016,-7,-20,6,52,0,0,0,0,0,0,0,0,0,0,0,
0,0,19,-101,2015,-4,-18,7,56,0,0,0,0,0,0,0,0,0,0,0,
0,0,12,-107,2013,-7,-18,7,38,0,0,0,0,0,0,0,0,0,0,0,
0,0,15,-107,2012,-6,-20,3,35,0,0,0,0,0,0,0,0,0,0,0,
0,0,15,-104,2010,-6,-16,4,41,0,0,0,0,0,0,0,0,0,0,0,
0,0,14,-102,2017,-9,-17,7,48,0,0,0,0,0,0,0,0,0,0,0,
0,0,16,-103,2015,-9,-17,6,46,0,0,0,0,0,0,0,0,0,0,0,
0,0,19,-105,2011,-4,-21,7,45,0,0,0,0,0,0,0,0,0,0,0,
0,0,11,-106,2013,-4,-19,4,37,0,0,0,0,0,0,0,0,0,0,0,
0,0,18,-109,2016,-8,-19,8,44,0,0,0,0,0,0,0,0,0,0,0,
0,0,17,-108,2018,-7,-17,6,47,0,0,0,0,0,0,0,0,0,0,0,
0,0,18,-104,2011,-8,-17,6,44,0,0,0,0,0,0,0,0,0,0,0,
0,0,19,-105,2015,-10,-15,5,47,0,0,0,0,0,0,0,0,0,0,0,
0,0,18,-98,2015,-6,-21,3,49,0,0,0,0,0,0,0,0,0,0,0,
0,0,16,-111,2015,-6,-19,8,41,0,0,0,0,0,0,0,0,0,0,0,
0,0,19,-110,2014,-8,-18,5,40,0,0,0,0,0,0,0,0,0,0,0,
0,0,22,-103,2013,-8,-17,8,53,0,0,0,0,0,0,0,0,0,0,0,
0,0,16,-99,2021,-4,-18,5,59,0,0,0,0,0,0,0,0,0,0,0,
0,0,17,-103,2020,-10,-18,3,47,0,0,0,0,0,0,0,0,0,0,0,
0,0,14,-104,2019,-6,-19,4,46,0,0,0,0,0,0,0,0,0,0,0,
0,0,20,-100,2016,-6,-15,9,62,0,0,0,0,0,0,0,0,0,0,0,
0,0,12,-105,2015,-8,-17,4,39,0,0,0,0,0,0,0,0,0,0,0,
0,0,18,-104,2013,-6,-17,5,47,0,0,0,0,0,0,0,0,0,0,0,
0,0,16,-109,2010,-7,-18,7,37,0,0,0,0,0,0,0,0,0,0,0,
0,0,21,-106,2020,-9,-17,4,51,0,0,0,0,0,0,0,0,0,0,0,
0,0,17,-98,2014,-5,-17,7,56,0,0,0,0,0,0,0,0,0,0,0,
0,0,19,-109,2018,-10,-18,4,42,0,0,0,0,0,0,0,0,0,0,0,
0,0,23,-103,2020,-8,-20,4,54,0,0,0,0,0,0,0,0,0,0,0,
0,0,26,-99,2020,-8,-18,8,67,0,0,0,0,0,0,0,0,0,0,0,
0,0,15,-106,2018,-6,-17,8,50,0,0,0,0,0,0,0,0,0,0,0,
0,0,20,-109,2023,-8,-20,6,50,0,0,0,0,0,0,0,0,0,0,0,
0,0,17,-102,2010,-7,-19,7,44,0,0,0,0,0,0,0,0,0,0,0,
0,0,13,-105,2017,-4,-21,5,43,0,0,0,0,0,0,0,0,0,0,0,
0,0,12,-102,2012,-8,-19,6,39,0,0,0,0,0,0,0,0,0,0,0,
0,0,12,-106,2012,-6,-16,6,40,0,0,0,0,0,0,0,0,0,0,0,
0,0,18,-108,2022,-6,-16,7,55,0,0,0,0,0,0,0,0,0,0,0,
0,0,16,-103,2011,-7,-18,3,40,0,0,0,0,0,0,0,0,0,0,0,
0,0,14,-109,2014,-7,-15,8,43,0,0,0,0,0,0,0,0,0,0,0,
0,0,13,-101,2020,-9,-18,6,49,0,0,0,0,0,0,0,0,0,0,0,
0,0,18,-103,2018,-5,-18,6,54,0,0,0,0,0,0,0,0,0,0,0,
0,0,18,-105,2019,-6,-20,5,49,0,0,0,0,0,0,0,0,0,0,0,
0,0,21,-104,2015,-7,-17,7,53,0,0,0,0,0,0,0,0,0,0,0,
0,0,20,-105,2019,-5,-17,9,59,0,0,0,0,0,0,0,0,0,0,0,
0,0,19,-106,2016,-10,-20,3,40,0,0,0,0,0,0,0,0,0,0,0,
0,0,24,-101,2013,-8,-19,2,49,0,0,0,0,0,0,0,0,0,0,0,
0,0,22,-109,2022,-4,-17,8,60,0,0,0,0,0,0,0,0,0,0,0,
0,0,17,-102,2009,-8,-18,5,41,0,0,0,0,0,0,0,0,0,0,0,
0,0,15,-101,2014,-4,-20,6,48,0,0,0,0,0,0,0,0,0,0,0,
0,0,24,-107,2014,-7,-19,8,51,0,0,0,0,0,0,0,0,0,0,0,
0,0,13,-105,2015,-7,-19,4,39,0,0,0,0,0,0,0,0,0,0,0,
0,0,23,-100,2019,-8,-15,5,62,0,0,0,0,0,0,0,0,0,0,0,
0,0,20,-107,2017,-7,-17,4,48,0,0,0,0,0,0,0,0,0,0,0,
0,0,20,-101,2018,-7,-19,7,56,0,0,0,0,0,0,0,0,0,0,0,
0,0,11,-108,2017,-10,-17,8,39,0,0,0,0,0,0,0,0,0,0,0,
0,0,13,-102,2020,-8,-16,5,50,0,0,0,0,0,0,0,0,0,0,0,
0,0,14,-104,2014,-7,-15,6,46,0,0,0,0,0,0,0,0,0,0,0,
0,0,19,-106,2012,-8,-19,6,42,0,0,0,0,0,0,0,0,0,0,0,
0,0,22,-95,2014,-9,-17,5,58,0,0,0,0,0,0,0,0,0,0,0,
0,0,17,-102,2011,-7,-17,5,45,0,0,0,0,0,0,0,0,0,0,0,
0,0,14,-111,2021,-9,-20,8,41,0,0,0,0,0,0,0,0,0,0,0,
0,0,15,-103,2014,-7,-19,9,47,0,0,0,0,0,0,0,0,0,0,0,
0,0,12,-104,2020,-8,-19,6,45,0,0,0,0,0,0,0,0,0,0,0,
0,0,20,-105,2018,-6,-18,5,52,0,0,0,0,0,0,0,0,0,0,0,
0,0,26,-107,2014,-7,-18,4,50,0,0,0,0,0,0,0,0,0,0,0,
0,0,23,-103,2019,-7,-19,5,56,0,0,0,0,0,0,0,0,0,0,0,
0,0,14,-111,2013,-9,-17,4,32,0,0,0,0,0,0,0,0,0,0,0,
0,0,17,-105,2018,-8,-18,5,47,0,0,0,0,0,0,0,0,0,0,0,
0,0,21,-105,2012,-5,-18,8,51,0,0,0,0,0,0,0,0,0,0,0,
0,0,20,-104,2017,-9,-16,6,52,0,0,0,0,0,0,0,0,0,0,0,
0,0,23,-103,2023,-9,-17,7,62,0,0,0,0,0,0,0,0,0,0,0,
0,0,15,-115,2016,-3,-19,5,37,0,0,0,0,0,0,0,0,0,0,0,
0,0,19,-100,2021,-9,-18,9,60,0,0,0,0,0,0,0,0,0,0,0,
0,0,11,-104,2014,-7,-17,7,42,0,0,0,0,0,0,0,0,0,0,0,
0,0,22,-105,2012,-4,-18,6,51,0,0,0,0,0,0,0,0,0,0,0,
0,0,17,-103,2017,-4,-19,4,50,0,0,0,0,0,0,0,0,0,0,0,
0,0,18,-105,2010,-8,-18,8,43,0,0,0,0,0,0,0,0,0,0,0,
0,0,18,-104,2016,-6,-20,7,49,0,0,0,0,0,0,0,0,0,0,0,
0,0,16,-105,2018,-7,-19,7,48,0,0,0,0,0,0,0,0,0,0,0,
0,0,20,-103,2018,-7,-17,3,52,0,0,0,0,0,0,0,0,0,0,0,
0,0,16,-97,2017,-6,-21,7,54,0,0,0,0,0,0,0,0,0,0,0,
0,0,18,-105,2016,-12,-22,6,39,0,0,0,0,0,0,0,0,0,0,0,
0,0,13,-98,2008,-6,-17,3,41,0,0,0,0,0,0,0,0,0,0,0,
0,0,16,-106,2013,-6,-16,2,41,0,0,0,0,0,0,0,0,0,0,0,
0,0,21,-107,2017,-9,-18,5,47,0,0,0,0,0,0,0,0,0,0,0,
0,0,19,-101,2019,-11,-18,8,54,0,0,0,0,0,0,0,0,0,0,0,
0,0,16,-112,2014,-5,-17,9,43,0,0,0,0,0,0,0,0,0,0,0,
0,0,20,-108,2019,-7,-20,1,43,0,0,0,0,0,0,0,0,0,0,0,
0,0,17,-98,2015,-10,-13,5,54,0,0,0,0,0,0,0,0,0,0,0,
0,0,18,-100,2020,-7,-19,11,61,0,0,0,0,0,0,0,0,0,0,0,
0,0,18,-106,2017,-10,-16,1,42,0,0,0,0,0,0,0,0,0,0,0,
0,0,18,-106,2017,-10,-16,1,42,0,0,0,0,0,0,0,0,0,0,0,
0,0,18,-107,2021,-7,-20,11,54,0,0,0,0,0,0,0,0,0,0,0,
0,0,20,-106,2016,-9,-16,5,48,0,0,0,0,0,0,0,0,0,0,0,
0,0,14,-120,2017,-7,-19,3,26,0,0,0,0,0,0,0,0,0,0,0,
0,0,14,-120,2017,-7,-19,3,26,0,0,0,0,0,0,0,0,0,0,0,
0,0,18,-104,2016,-8,-17,7,50,0,0,0,0,0,0,0,0,0,0,0,
0,0,15,-109,2014,-7,-16,7,42,0,0,0,0,0,0,0,0,0,0,0,
0,0,18,-113,2013,-8,-15,5,38,0,0,0,0,0,0,0,0,0,0,0,
0,0,12,-94,2006,-8,-19,7,42,0,0,0,0,0,0,0,0,0,0,0,
0,0,12,-94,2006,-6,-18,5,43,0,0,0,0,0,0,0,0,0,0,0,
0,0,22,-112,2023,-4,-17,8,58,0,0,0,0,0,0,0,0,0,0,0,
0,0,17,-103,2018,-9,-18,4,47,0,0,0,0,0,0,0,0,0,0,0,
0,0,14,-105,2011,-5,-17,7,43,0,0,0,0,0,0,0,0,0,0,0,
0,0,14,-107,2013,-6,-19,8,41,0,0,0,0,0,0,0,0,0,0,0,
0,0,20,-105,2020,-5,-18,7,57,0,0,0,0,0,0,0,0,0,0,0,
0,0,14,-110,2015,-6,-19,7,39,0,0,0,0,0,0,0,0,0,0,0,
0,0,16,-105,2017,-3,-16,5,52,0,0,0,0,0,0,0,0,0,0,0,
0,0,18,-101,2016,-6,-18,6,53,0,0,0,0,0,0,0,0,0,0,0,
0,0,16,-110,2017,-7,-18,7,43,0,0,0,0,0,0,0,0,0,0,0,
0,0,15,-105,2019,-9,-15,8,51,0,0,0,0,0,0,0,0,0,0,0,
0,0,16,-106,2016,-6,-19,7,46,0,0,0,0,0,0,0,0,0,0,0,
0,0,23,-104,2008,-7,-19,6,45,0,0,0,0,0,0,0,0,0,0,0,
0,0,13,-112,2019,-7,-18,9,42,0,0,0,0,0,0,0,0,0,0,0,
0,0,24,-103,2010,-6,-17,7,53,0,0,0,0,0,0,0,0,0,0,0,
0,0,22,-115,2009,-7,-19,5,33,0,0,0,0,0,0,0,0,0,0,0,
0,0,20,-98,2009,-9,-21,3,42,0,0,0,0,0,0,0,0,0,0,0,
0,0,15,-102,2009,-5,-17,6,44,0,0,0,0,0,0,0,0,0,0,0,
0,0,17,-104,2015,-6,-17,5,48,0,0,0,0,0,0,0,0,0,0,0,
0,0,22,-109,2014,-8,-19,4,42,0,0,0,0,0,0,0,0,0,0,0,
0,0,17,-107,2007,-6,-18,5,36,0,0,0,0,0,0,0,0,0,0,0,
0,0,19,-107,2016,-9,-17,6,46,0,0,0,0,0,0,0,0,0,0,0,
0,0,18,-106,2010,-8,-18,7,41,0,0,0,0,0,0,0,0,0,0,0,
0,0,18,-104,2019,-8,-16,6,53,0,0,0,0,0,0,0,0,0,0,0,
0,0,9,-106,2017,-7,-20,7,38,0,0,0,0,0,0,0,0,0,0,0,
0,0,22,-98,2009,-6,-18,8,55,0,0,0,0,0,0,0,0,0,0,0,
0,0,12,-105,2014,-6,-18,6,41,0,0,0,0,0,0,0,0,0,0,0,
0,0,17,-107,2018,-5,-18,6,49,0,0,0,0,0,0,0,0,0,0,0,
0,0,19,-107,2022,-9,-18,8,53,0,0,0,0,0,0,0,0,0,0,0,
0,0,15,-103,2015,-9,-17,7,46,0,0,0,0,0,0,0,0,0,0,0,
0,0,18,-105,2007,-10,-15,5,38,0,0,0,0,0,0,0,0,0,0,0,
0,0,7,-97,2012,-4,-18,6,44,0,0,0,0,0,0,0,0,0,0,0,
0,0,16,-106,2006,-8,-19,4,31,0,0,0,0,0,0,0,0,0,0,0,
0,0,14,-108,2014,-7,-19,9,41,0,0,0,0,0,0,0,0,0,0,0,
0,0,21,-102,2017,-5,-19,7,57,0,0,0,0,0,0,0,0,0,0,0,
0,0,12,-99,2017,-4,-16,10,58,0,0,0,0,0,0,0,0,0,0,0,
0,0,15,-111,2020,-9,-21,8,40,0,0,0,0,0,0,0,0,0,0,0,
0,0,15,-109,2015,-5,-19,5,40,0,0,0,0,0,0,0,0,0,0,0,
0,0,16,-103,2020,-6,-20,5,50,0,0,0,0,0,0,0,0,0,0,0,
0,0,23,-103,2020,-7,-15,3,59,0,0,0,0,0,0,0,0,0,0,0,
0,0,15,-106,2014,-6,-17,5,43,0,0,0,0,0,0,0,0,0,0,0,
0,0,15,-108,2010,-9,-19,6,33,0,0,0,0,0,0,0,0,0,0,0,
0,0,16,-114,2015,-6,-17,3,35,0,0,0,0,0,0,0,0,0,0,0,
0,0,16,-113,2019,-7,-18,6,41,0,0,0,0,0,0,0,0,0,0,0,
0,0,18,-106,2007,-5,-17,5,40,0,0,0,0,0,0,0,0,0,0,0,
0,0,14,-107,2012,-8,-16,7,40,0,0,0,0,0,0,0,0,0,0,0,
0,0,22,-108,2012,-5,-17,4,46,0,0,0,0,0,0,0,0,0,0,0,
0,0,18,-101,2015,-8,-19,4,47,0,0,0,0,0,0,0,0,0,0,0,
0,0,21,-109,2020,-6,-18,8,54,0,0,0,0,0,0,0,0,0,0,0,
0,0,20,-101,2015,-5,-20,8,55,0,0,0,0,0,0,0,0,0,0,0,
0,0,19,-104,2015,-10,-17,4,45,0,0,0,0,0,0,0,0,0,0,0,
0,0,17,-103,2014,-5,-22,5,44,0,0,0,0,0,0,0,0,0,0,0,
0,0,14,-101,2010,-9,-17,8,43,0,0,0,0,0,0,0,0,0,0,0,
0,0,21,-98,2011,-8,-18,8,54,0,0,0,0,0,0,0,0,0,0,0,
0,0,16,-108,2017,-8,-17,8,46,0,0,0,0,0,0,0,0,0,0,0,
0,0,15,-106,2018,-10,-20,2,37,0,0,0,0,0,0,0,0,0,0,0,
0,0,19,-104,2011,-7,-21,6,42,0,0,0,0,0,0,0,0,0,0,0,
0,0,19,-105,2018,-10,-18,4,46,0,0,0,0,0,0,0,0,0,0,0,
0,0,18,-104,2014,-2,-19,7,52,0,0,0,0,0,0,0,0,0,0,0,
0,0,20,-102,2017,-6,-18,5,54,0,0,0,0,0,0,0,0,0,0,0,
0,0,17,-111,2018,-8,-17,8,45,0,0,0,0,0,0,0,0,0,0,0,
0,0,13,-109,2020,-4,-18,6,46,0,0,0,0,0,0,0,0,0,0,0,
0,0,17,-109,2013,-10,-16,4,37,0,0,0,0,0,0,0,0,0,0,0,
0,0,14,-111,2011,-9,-18,6,31,0,0,0,0,0,0,0,0,0,0,0,
0,0,12,-102,2013,-9,-18,4,38,0,0,0,0,0,0,0,0,0,0,0,
0,0,14,-101,2018,-8,-19,7,49,0,0,0,0,0,0,0,0,0,0,0,
0,0,19,-106,2016,-10,-17,2,42,0,0,0,0,0,0,0,0,0,0,0,
0,0,16,-103,2009,-9,-17,9,43,0,0,0,0,0,0,0,0,0,0,0,
0,0,13,-113,2022,-7,-18,4,39,0,0,0,0,0,0,0,0,0,0,0,
0,0,17,-102,2017,-5,-19,7,53,0,0,0,0,0,0,0,0,0,0,0,
0,0,16,-108,2012,-8,-17,7,40,0,0,0,0,0,0,0,0,0,0,0,
0,0,17,-104,2018,-6,-16,9,56,0,0,0,0,0,0,0,0,0,0,0,
0,0,18,-102,2016,-5,-13,5,57,0,0,0,0,0,0,0,0,0,0,0,
0,0,18,-107,2015,-7,-19,7,45,0,0,0,0,0,0,0,0,0,0,0,
0,0,21,-111,2010,-5,-19,6,40,0,0,0,0,0,0,0,0,0,0,0,
0,0,15,-111,2009,-4,-19,7,35,0,0,0,0,0,0,0,0,0,0,0,
0,0,17,-93,2019,-8,-18,8,63,0,0,0,0,0,0,0,0,0,0,0,
0,0,11,-104,2011,-6,-17,1,34,0,0,0,0,0,0,0,0,0,0,0,
0,0,9,-104,2015,-6,-17,1,36,0,0,0,0,0,0,0,0,0,0,0,
0,0,20,-107,2016,-9,-16,8,50,0,0,0,0,0,0,0,0,0,0,0,
0,0,12,-105,2017,-8,-17,6,43,0,0,0,0,0,0,0,0,0,0,0,
0,0,19,-115,2012,-5,-22,8,35,0,0,0,0,0,0,0,0,0,0,0,
0,0,18,-102,2015,-5,-18,4,50,0,0,0,0,0,0,0,0,0,0,0,
0,0,20,-110,2019,-6,-21,7,47,0,0,0,0,0,0,0,0,0,0,0,
0,0,10,-105,2009,-5,-17,7,37,0,0,0,0,0,0,0,0,0,0,0,
0,0,15,-103,2017,-8,-20,7,46,0,0,0,0,0,0,0,0,0,0,0,
0,0,20,-104,2017,-6,-20,10,55,0,0,0,0,0,0,0,0,0,0,0,
0,0,20,-103,2014,-4,-19,6,52,0,0,0,0,0,0,0,0,0,0,0,
0,0,14,-109,2018,-8,-15,2,40,0,0,0,0,0,0,0,0,0,0,0,
0,0,20,-111,2012,-8,-16,6,41,0,0,0,0,0,0,0,0,0,0,0,
0,0,21,-105,2019,-8,-18,1,48,0,0,0,0,0,0,0,0,0,0,0,
0,0,16,-104,2017,-8,-19,5,45,0,0,0,0,0,0,0,0,0,0,0,
0,0,18,-108,2014,-6,-20,7,43,0,0,0,0,0,0,0,0,0,0,0,
0,0,16,-107,2021,-6,-20,7,49,0,0,0,0,0,0,0,0,0,0,0,
0,0,18,-102,2015,-6,-15,5,53,0,0,0,0,0,0,0,0,0,0,0,
0,0,11,-104,2017,-5,-19,7,45,0,0,0,0,0,0,0,0,0,0,0,
0,0,16,-103,2019,-6,-20,3,47,0,0,0,0,0,0,0,0,0,0,0,
0,0,16,-106,2011,-6,-14,3,42,0,0,0,0,0,0,0,0,0,0,0,
0,0,18,-108,2014,-6,-20,5,41,0,0,0,0,0,0,0,0,0,0,0,
0,0,13,-117,2013,-10,-20,8,25,0,0,0,0,0,0,0,0,0,0,0,
0,0,16,-108,2013,-8,-18,7,40,0,0,0,0,0,0,0,0,0,0,0,
0,0,16,-108,2013,-8,-18,7,40,0,0,0,0,0,0,0,0,0,0,0,
0,0,13,-101,2017,-8,-19,4,44,0,0,0,0,0,0,0,0,0,0,0,
0,0,13,-103,2021,-9,-19,4,45,0,0,0,0,0,0,0,0,0,0,0,
0,0,19,-106,2010,-7,-20,6,40,0,0,0,0,0,0,0,0,0,0,0,
0,0,19,-106,2010,-5,-17,4,43,0,0,0,0,0,0,0,0,0,0,0,
0,0,19,-103,2020,-8,-17,3,52,0,0,0,0,0,0,0,0,0,0,0,
0,0,17,-109,2017,-9,-18,4,40,0,0,0,0,0,0,0,0,0,0,0,
0,0,20,-99,2017,-7,-19,8,58,0,0,0,0,0,0,0,0,0,0,0,
0,0,20,-99,2017,-10,-20,6,52,0,0,0,0,0,0,0,0,0,0,0,
0,0,18,-99,2007,-9,-17,5,43,0,0,0,0,0,0,0,0,0,0,0,
0,0,19,-109,2005,-7,-16,11,41,0,0,0,0,0,0,0,0,0,0,0,
0,0,15,-112,2020,-11,-18,4,36,0,0,0,0,0,0,0,0,0,0,0,
0,0,16,-104,2011,-8,-19,7,41,0,0,0,0,0,0,0,0,0,0,0,
0,0,11,-104,2014,-9,-18,5,37,0,0,0,0,0,0,0,0,0,0,0,
0,0,18,-116,2014,-7,-18,8,37,0,0,0,0,0,0,0,0,0,0,0,
0,0,13,-104,2016,-10,-18,6,41,0,0,0,0,0,0,0,0,0,0,0,
0,0,15,-110,2015,-5,-18,7,42,0,0,0,0,0,0,0,0,0,0,0,
0,0,20,-108,2015,-5,-19,7,48,0,0,0,0,0,0,0,0,0,0,0,
0,0,13,-109,2017,-7,-20,5,37,0,0,0,0,0,0,0,0,0,0,0,
0,0,17,-96,2011,-5,-18,7,54,0,0,0,0,0,0,0,0,0,0,0,
0,0,15,-103,2018,-7,-18,5,48,0,0,0,0,0,0,0,0,0,0,0,
0,0,22,-102,2016,-9,-20,8,53,0,0,0,0,0,0,0,0,0,0,0,
0,0,24,-102,2021,-2,-17,9,71,0,0,0,0,0,0,0,0,0,0,0,
0,0,19,-108,2012,-7,-16,8,46,0,0,0,0,0,0,0,0,0,0,0,
0,0,19,-107,2020,-9,-20,5,46,0,0,0,0,0,0,0,0,0,0,0,
0,0,15,-103,2022,-9,-15,6,54,0,0,0,0,0,0,0,0,0,0,0,
0,0,16,-102,2012,-8,-19,7,44,0,0,0,0,0,0,0,0,0,0,0,
0,0,14,-109,2018,-6,-17,6,44,0,0,0,0,0,0,0,0,0,0,0,
0,0,22,-106,2017,-4,-17,6,56,0,0,0,0,0,0,0,0,0,0,0,
0,0,12,-110,2026,-4,-19,6,49,0,0,0,0,0,0,0,0,0,0,0,
0,0,20,-107,2015,-5,-19,9,51,0,0,0,0,0,0,0,0,0,0,0,
0,0,15,-112,2015,-9,-19,6,34,0,0,0,0,0,0,0,0,0,0,0,
0,0,25,-108,2021,-9,-17,6,56,0,0,0,0,0,0,0,0,0,0,0,
0,0,19,-104,2018,-6,-19,8,54,0,0,0,0,0,0,0,0,0,0,0,
0,0,18,-104,2015,-5,-17,6,51,0,0,0,0,0,0,0,0,0,0,0,
0,0,15,-106,2011,-9,-18,5,36,0,0,0,0,0,0,0,0,0,0,0,
0,0,12,-106,2023,-6,-21,5,45,0,0,0,0,0,0,0,0,0,0,0,
0,0,24,-111,2009,-9,-16,9,44,0,0,0,0,0,0,0,0,0,0,0,
0,0,19,-110,2018,-10,-16,5,44,0,0,0,0,0,0,0,0,0,0,0,
0,0,17,-110,2015,-6,-18,4,40,0,0,0,0,0,0,0,0,0,0,0,
0,0,16,-106,2016,-6,-18,4,44,0,0,0,0,0,0,0,0,0,0,0,
0,0,23,-104,2014,-8,-19,6,50,0,0,0,0,0,0,0,0,0,0,0,
0,0,12,-112,2014,-8,-18,8,34,0,0,0,0,0,0,0,0,0,0,0,
0,0,14,-107,2012,-11,-19,3,30,0,0,0,0,0,0,0,0,0,0,0,
0,0,16,-115,2011,-3,-17,8,38,0,0,0,0,0,0,0,0,0,0,0,
0,0,14,-106,2019,-10,-17,7,45,0,0,0,0,0,0,0,0,0,0,0,
0,0,16,-96,2019,-8,-19,3,53,0,0,0,0,0,0,0,0,0,0,0,
0,0,20,-115,2012,-6,-16,5,38,0,0,0,0,0,0,0,0,0,0,0,
0,0,16,-111,2020,-7,-19,3,40,0,0,0,0,0,0,0,0,0,0,0,
0,0,17,-108,2018,-6,-16,8,51,0,0,0,0,0,0,0,0,0,0,0,
0,0,14,-112,2015,-7,-20,8,36,0,0,0,0,0,0,0,0,0,0,0,
0,0,15,-108,2012,-5,-20,10,42,0,0,0,0,0,0,0,0,0,0,0,
0,0,21,-106,2026,-7,-19,4,57,0,0,0,0,0,0,0,0,0,0,0,
0,0,20,-112,2015,-3,-19,6,45,0,0,0,0,0,0,0,0,0,0,0,
0,0,18,-110,2016,-5,-20,4,41,0,0,0,0,0,0,0,0,0,0,0,
0,0,14,-102,2013,-8,-16,6,45,0,0,0,0,0,0,0,0,0,0,0,
0,0,17,-100,2016,-10,-19,7,49,0,0,0,0,0,0,0,0,0,0,0,
0,0,14,-104,2014,-11,-19,8,40,0,0,0,0,0,0,0,0,0,0,0,
0,0,24,-107,2014,-6,-20,5,48,0,0,0,0,0,0,0,0,0,0,0,
0,0,20,-96,2022,-8,-16,5,65,0,0,0,0,0,0,0,0,0,0,0,
0,0,19,-97,2014,-9,-17,5,53,0,0,0,0,0,0,0,0,0,0,0,
0,0,22,-110,2019,-8,-18,5,48,0,0,0,0,0,0,0,0,0,0,0,
0,0,13,-103,2019,-9,-20,6,44,0,0,0,0,0,0,0,0,0,0,0,
0,0,19,-99,2016,-5,-17,8,60,0,0,0,0,0,0,0,0,0,0,0,
0,0,16,-105,2017,-7,-17,5,47,0,0,0,0,0,0,0,0,0,0,0,
0,0,22,-101,2015,-9,-18,8,55,0,0,0,0,0,0,0,0,0,0,0,
0,0,15,-102,2017,-6,-17,6,51,0,0,0,0,0,0,0,0,0,0,0,
0,0,21,-105,2012,-6,-18,8,50,0,0,0,0,0,0,0,0,0,0,0,
0,0,23,-102,2012,-8,-20,9,52,0,0,0,0,0,0,0,0,0,0,0,
0,0,17,-100,2011,-5,-16,9,54,0,0,0,0,0,0,0,0,0,0,0,
0,0,20,-102,2015,-12,-21,3,41,0,0,0,0,0,0,0,0,0,0,0,
0,0,17,-107,2019,-5,-17,4,49,0,0,0,0,0,0,0,0,0,0,0,
0,0,14,-104,2015,-8,-18,6,43,0,0,0,0,0,0,0,0,0,0,0,
0,0,14,-111,2015,-5,-15,8,44,0,0,0,0,0,0,0,0,0,0,0,
0,0,21,-103,2011,-9,-17,4,45,0,0,0,0,0,0,0,0,0,0,0,
0,0,20,-110,2013,-6,-17,7,45,0,0,0,0,0,0,0,0,0,0,0,
0,0,13,-100,2019,-6,-18,7,53,0,0,0,0,0,0,0,0,0,0,0,
0,0,11,-102,2022,-7,-17,10,55,0,0,0,0,0,0,0,0,0,0,0,
0,0,22,-107,2021,-9,-17,4,52,0,0,0,0,0,0,0,0,0,0,0,
0,0,22,-105,2020,-4,-18,3,56,0,0,0,0,0,0,0,0,0,0,0,
0,0,18,-105,2012,-9,-20,4,38,0,0,0,0,0,0,0,0,0,0,0,
0,0,10,-103,2018,-7,-16,10,50,0,0,0,0,0,0,0,0,0,0,0,
0,0,13,-104,2007,-5,-20,8,37,0,0,0,0,0,0,0,0,0,0,0,
0,0,17,-101,2017,-11,-20,8,48,0,0,0,0,0,0,0,0,0,0,0,
0,0,15,-107,2009,-9,-21,7,32,0,0,0,0,0,0,0,0,0,0,0,
0,0,17,-107,2012,-10,-21,4,33,0,0,0,0,0,0,0,0,0,0,0,
0,0,17,-105,2019,-7,-21,9,50,0,0,0,0,0,0,0,0,0,0,0,
0,0,17,-104,2009,-4,-15,4,45,0,0,0,0,0,0,0,0,0,0,0,
0,0,16,-110,2017,-10,-18,7,40,0,0,0,0,0,0,0,0,0,0,0,
0,0,15,-105,2022,-5,-17,10,58,0,0,0,0,0,0,0,0,0,0,0,
0,0,18,-101,2014,-8,-18,8,51,0,0,0,0,0,0,0,0,0,0,0,
0,0,20,-107,2019,-9,-16,5,50,0,0,0,0,0,0,0,0,0,0,0,
0,0,15,-110,2017,-7,-21,5,37,0,0,0,0,0,0,0,0,0,0,0,
0,0,17,-100,2016,-6,-17,6,54,0,0,0,0,0,0,0,0,0,0,0,
0,0,17,-104,2010,-6,-16,5,44,0,0,0,0,0,0,0,0,0,0,0,
0,0,14,-110,2013,-9,-19,5,32,0,0,0,0,0,0,0,0,0,0,0,
0,0,16,-106,2018,-4,-18,6,50,0,0,0,0,0,0,0,0,0,0,0,
0,0,15,-109,2014,-7,-21,5,35,0,0,0,0,0,0,0,0,0,0,0,
0,0,14,-105,2018,-7,-17,9,50,0,0,0,0,0,0,0,0,0,0,0,
0,0,19,-108,2019,-8,-17,3,46,0,0,0,0,0,0,0,0,0,0,0,
0,0,14,-114,2017,-7,-18,7,37,0,0,0,0,0,0,0,0,0,0,0,
0,0,18,-106,2011,-5,-18,4,42,0,0,0,0,0,0,0,0,0,0,0,
0,0,13,-108,2019,-3,-19,7,47,0,0,0,0,0,0,0,0,0,0,0,
0,0,18,-105,2017,-5,-18,6,51,0,0,0,0,0,0,0,0,0,0,0,
0,0,13,-102,2022,-6,-19,8,54,0,0,0,0,0,0,0,0,0,0,0,
0,0,18,-104,2022,-8,-18,10,58,0,0,0,0,0,0,0,0,0,0,0,
0,0,17,-98,2022,-6,-19,7,61,0,0,0,0,0,0,0,0,0,0,0,
0,0,18,-103,2014,-5,-18,3,47,0,0,0,0,0,0,0,0,0,0,0,
0,0,18,-109,2011,-5,-17,4,40,0,0,0,0,0,0,0,0,0,0,0,
0,0,20,-100,2014,-9,-17,8,54,0,0,0,0,0,0,0,0,0,0,0,
0,0,20,-100,2014,-9,-17,8,54,0,0,0,0,0,0,0,0,0,0,0,
0,0,19,-106,2016,-6,-16,5,50,0,0,0,0,0,0,0,0,0,0,0,
0,0,18,-106,2010,-6,-20,10,44,0,0,0,0,0,0,0,0,0,0,0,
0,0,15,-113,2016,-6,-17,9,42,0,0,0,0,0,0,0,0,0,0,0,
0,0,15,-113,2016,-2,-19,9,44,0,0,0,0,0,0,0,0,0,0,0,
0,0,18,-110,2017,-9,-15,7,46,0,0,0,0,0,0,0,0,0,0,0,
0,0,13,-110,2009,-7,-17,8,34,0,0,0,0,0,0,0,0,0,0,0,
0,0,17,-103,2012,-8,-18,3,41,0,0,0,0,0,0,0,0,0,0,0,
0,0,17,-103,2012,-10,-17,2,39,0,0,0,0,0,0,0,0,0,0,0,
0,0,18,-100,2018,-5,-17,5,57,0,0,0,0,0,0,0,0,0,0,0,
0,0,12,-98,2019,-10,-18,1,44,0,0,0,0,0,0,0,0,0,0,0,
0,0,16,-109,2018,-6,-17,6,46,0,0,0,0,0,0,0,0,0,0,0,
0,0,22,-103,2014,-10,-18,8,51,0,0,0,0,0,0,0,0,0,0,0,
0,0,19,-107,2013,-7,-17,6,45,0,0,0,0,0,0,0,0,0,0,0,
0,0,20,-108,2016,-8,-18,4,44,0,0,0,0,0,0,0,0,0,0,0,
0,0,26,-100,2023,-6,-19,7,69,0,0,0,0,0,0,0,0,0,0,0,
0,0,19,-102,2013,-7,-21,4,44,0,0,0,0,0,0,0,0,0,0,0,
0,0,21,-110,2019,-10,-16,6,48,0,0,0,0,0,0,0,0,0,0,0,
0,0,19,-103,2016,-7,-19,6,50,0,0,0,0,0,0,0,0,0,0,0,
0,0,23,-105,2019,-5,-19,5,56,0,0,0,0,0,0,0,0,0,0,0,
0,0,19,-105,2017,-9,-17,7,50,0,0,0,0,0,0,0,0,0,0,0,
0,0,23,-99,2010,-6,-18,6,54,0,0,0,0,0,0,0,0,0,0,0,
0,0,16,-105,2015,-6,-20,7,45,0,0,0,0,0,0,0,0,0,0,0,
0,0,13,-108,2015,-7,-17,9,43,0,0,0,0,0,0,0,0,0,0,0,
0,0,17,-106,2011,-8,-17,4,39,0,0,0,0,0,0,0,0,0,0,0,
0,0,18,-105,2014,-8,-19,4,42,0,0,0,0,0,0,0,0,0,0,0,
0,0,23,-109,2012,-9,-18,4,41,0,0,0,0,0,0,0,0,0,0,0,
0,0,12,-101,2016,-6,-19,7,47,0,0,0,0,0,0,0,0,0,0,0,
0,0,15,-98,2017,-4,-18,3,53,0,0,0,0,0,0,0,0,0,0,0,
0,0,16,-107,2016,-6,-19,6,44,0,0,0,0,0,0,0,0,0,0,0,
0,0,16,-95,2011,-8,-16,8,54,0,0,0,0,0,0,0,0,0,0,0,
0,0,18,-102,2023,-8,-18,9,60,0,0,0,0,0,0,0,0,0,0,0,
0,0,17,-97,2017,-6,-19,5,55,0,0,0,0,0,0,0,0,0,0,0,
0,0,14,-102,2008,-4,-14,11,51,0,0,0,0,0,0,0,0,0,0,0,
0,0,17,-106,2011,-4,-19,6,43,0,0,0,0,0,0,0,0,0,0,0,
0,0,11,-99,2008,-7,-18,6,39,0,0,0,0,0,0,0,0,0,0,0,
0,0,18,-103,2016,-3,-18,7,55,0,0,0,0,0,0,0,0,0,0,0,
0,0,16,-104,2017,-3,-18,7,53,0,0,0,0,0,0,0,0,0,0,0,
0,0,13,-106,2010,-9,-18,7,35,0,0,0,0,0,0,0,0,0,0,0,
0,0,18,-108,2018,-8,-17,7,48,0,0,0,0,0,0,0,0,0,0,0,
0,0,22,-110,2017,-8,-15,7,51,0,0,0,0,0,0,0,0,0,0,0,
0,0,14,-108,2016,-7,-22,6,37,0,0,0,0,0,0,0,0,0,0,0,
0,0,19,-108,2015,-8,-18,7,45,0,0,0,0,0,0,0,0,0,0,0,
0,0,20,-111,2023,-8,-17,9,54,0,0,0,0,0,0,0,0,0,0,0,
0,0,12,-103,2012,-8,-18,3,36,0,0,0,0,0,0,0,0,0,0,0,
0,0,26,-105,2009,-2,-18,8,56,0,0,0,0,0,0,0,0,0,0,0,
0,0,20,-106,2008,-9,-20,5,36,0,0,0,0,0,0,0,0,0,0,0,
0,0,20,-101,2015,-11,-19,11,53,0,0,0,0,0,0,0,0,0,0,0,
0,0,17,-110,2011,-9,-15,5,37,0,0,0,0,0,0,0,0,0,0,0,
0,0,26,-102,2015,-8,-19,8,58,0,0,0,0,0,0,0,0,0,0,0,
0,0,13,-109,2019,-8,-18,7,42,0,0,0,0,0,0,0,0,0,0,0,
0,0,24,-101,2020,-5,-19,6,63,0,0,0,0,0,0,0,0,0,0,0,
0,0,16,-108,2019,-7,-23,4,39,0,0,0,0,0,0,0,0,0,0,0,
0,0,15,-110,2017,-11,-21,5,33,0,0,0,0,0,0,0,0,0,0,0,
0,0,11,-103,2015,-8,-18,7,42,0,0,0,0,0,0,0,0,0,0,0,
0,0,17,-104,2016,-10,-17,7,47,0,0,0,0,0,0,0,0,0,0,0,
0,0,15,-107,2019,-8,-18,6,45,0,0,0,0,0,0,0,0,0,0,0,
0,0,21,-107,2026,-8,-18,6,58,0,0,0,0,0,0,0,0,0,0,0,
0,0,17,-113,2012,-4,-19,8,39,0,0,0,0,0,0,0,0,0,0,0,
0,0,18,-106,2015,-3,-18,6,50,0,0,0,0,0,0,0,0,0,0,0,
0,0,16,-105,2015,-7,-17,6,46,0,0,0,0,0,0,0,0,0,0,0,
0,0,12,-105,2011,-6,-18,8,40,0,0,0,0,0,0,0,0,0,0,0,
0,0,19,-107,2015,-6,-19,5,45,0,0,0,0,0,0,0,0,0,0,0,
0,0,18,-105,2017,-8,-18,6,48,0,0,0,0,0,0,0,0,0,0,0,
0,0,15,-98,2020,-5,-16,6,60,0,0,0,0,0,0,0,0,0,0,0,
0,0,17,-102,2024,-7,-17,9,62,0,0,0,0,0,0,0,0,0,0,0,
0,0,12,-108,2014,-11,-20,5,30,0,0,0,0,0,0,0,0,0,0,0,
0,0,25,-99,2017,-8,-17,6,62,0,0,0,0,0,0,0,0,0,0,0,
0,0,21,-104,2016,-9,-18,2,46,0,0,0,0,0,0,0,0,0,0,0,
0,0,18,-104,2017,-8,-20,3,44,0,0,0,0,0,0,0,0,0,0,0,
0,0,15,-112,2027,-8,-19,8,49,0,0,0,0,0,0,0,0,0,0,0,
0,0,22,-106,2014,-10,-17,6,47,0,0,0,0,0,0,0,0,0,0,0,
0,0,11,-107,2019,-7,-16,5,43,0,0,0,0,0,0,0,0,0,0,0,
0,0,19,-110,2011,-8,-16,5,39,0,0,0,0,0,0,0,0,0,0,0,
0,0,16,-105,2015,-9,-20,7,42,0,0,0,0,0,0,0,0,0,0,0,
0,0,21,-112,2017,-8,-17,5,44,0,0,0,0,0,0,0,0,0,0,0,
0,0,16,-99,2021,-6,-17,8,61,0,0,0,0,0,0,0,0,0,0,0,
0,0,20,-107,2021,-11,-16,5,50,0,0,0,0,0,0,0,0,0,0,0,
0,0,24,-103,2015,-8,-19,9,56,0,0,0,0,0,0,0,0,0,0,0,
0,0,14,-107,2018,-10,-20,6,39,0,0,0,0,0,0,0,0,0,0,0,
0,0,10,-104,2018,-7,-17,6,44,0,0,0,0,0,0,0,0,0,0,0,
0,0,11,-107,2021,-4,-17,6,48,0,0,0,0,0,0,0,0,0,0,0,
0,0,16,-104,2010,-8,-17,6,41,0,0,0,0,0,0,0,0,0,0,0,
0,0,12,-112,2013,-11,-18,4,26,0,0,0,0,0,0,0,0,0,0,0,
0,0,16,-114,2010,-6,-20,8,32,0,0,0,0,0,0,0,0,0,0,0,
0,0,17,-109,2025,-8,-15,6,54,0,0,0,0,0,0,0,0,0,0,0,
0,0,18,-105,2017,-8,-17,7,50,0,0,0,0,0,0,0,0,0,0,0,
0,0,24,-101,2011,-11,-17,7,51,0,0,0,0,0,0,0,0,0,0,0,
0,0,18,-105,2015,-6,-22,7,45,0,0,0,0,0,0,0,0,0,0,0,
0,0,20,-104,2014,-7,-18,6,49,0,0,0,0,0,0,0,0,0,0,0,
0,0,20,-101,2016,-7,-18,5,53,0,0,0,0,0,0,0,0,0,0,0,
0,0,19,-102,2016,-6,-18,5,52,0,0,0,0,0,0,0,0,0,0,0,
0,0,16,-99,2012,-5,-21,7,48,0,0,0,0,0,0,0,0,0,0,0,
0,0,18,-98,2017,-10,-18,4,51,0,0,0,0,0,0,0,0,0,0,0,
0,0,16,-104,2015,-9,-18,8,46,0,0,0,0,0,0,0,0,0,0,0,
0,0,20,-110,2018,-4,-18,8,52,0,0,0,0,0,0,0,0,0,0,0,
0,0,18,-107,2016,-9,-20,5,41,0,0,0,0,0,0,0,0,0,0,0,
0,0,19,-107,2015,-7,-17,4,45,0,0,0,0,0,0,0,0,0,0,0,
0,0,15,-101,2014,-8,-17,6,47,0,0,0,0,0,0,0,0,0,0,0,
0,0,14,-101,2011,-6,-16,2,42,0,0,0,0,0,0,0,0,0,0,0,
0,0,14,-111,2017,-8,-17,8,41,0,0,0,0,0,0,0,0,0,0,0,
0,0,19,-104,2016,-10,-17,1,43,0,0,0,0,0,0,0,0,0,0,0,
0,0,19,-107,2015,-6,-19,8,48,0,0,0,0,0,0,0,0,0,0,0,
0,0,19,-105,2016,-7,-18,4,47,0,0,0,0,0,0,0,0,0,0,0,
0,0,14,-107,2010,-6,-18,6,37,0,0,0,0,0,0,0,0,0,0,0,
0,0,18,-105,2018,-9,-19,8,49,0,0,0,0,0,0,0,0,0,0,0,
0,0,20,-105,2007,-7,-19,9,43,0,0,0,0,0,0,0,0,0,0,0,
0,0,21,-98,2010,-4,-19,6,54,0,0,0,0,0,0,0,0,0,0,0,
0,0,21,-98,2010,-4,-19,6,54,0,0,0,0,0,0,0,0,0,0,0,
0,0,17,-105,2017,-7,-19,8,49,0,0,0,0,0,0,0,0,0,0,0,
0,0,12,-108,2022,-7,-20,5,42,0,0,0,0,0,0,0,0,0,0,0,
0,0,15,-103,2015,-9,-20,4,40,0,0,0,0,0,0,0,0,0,0,0,
0,0,20,-111,2017,-5,-19,7,47,0,0,0,0,0,0,0,0,0,0,0,
0,0,13,-105,2016,-9,-19,8,42,0,0,0,0,0,0,0,0,0,0,0,
0,0,13,-105,2016,-6,-16,7,47,0,0,0,0,0,0,0,0,0,0,0,
0,0,20,-97,2014,-5,-19,7,58,0,0,0,0,0,0,0,0,0,0,0,
0,0,12,-103,2018,-7,-19,6,45,0,0,0,0,0,0,0,0,0,0,0,
0,0,23,-100,2013,-9,-21,4,48,0,0,0,0,0,0,0,0,0,0,0,
0,0,23,-100,2013,-5,-19,6,56,0,0,0,0,0,0,0,0,0,0,0,
0,0,21,-106,2013,-5,-19,8,50,0,0,0,0,0,0,0,0,0,0,0,
0,0,19,-104,2016,-6,-15,8,56,0,0,0,0,0,0,0,0,0,0,0,
0,0,16,-101,2014,-6,-20,6,47,0,0,0,0,0,0,0,0,0,0,0,
0,0,22,-106,2020,-8,-16,5,55,0,0,0,0,0,0,0,0,0,0,0,
0,0,20,-102,2007,-5,-21,3,40,0,0,0,0,0,0,0,0,0,0,0,
0,0,19,-99,2020,-5,-19,7,61,0,0,0,0,0,0,0,0,0,0,0,
0,0,23,-100,2010,-9,-18,6,50,0,0,0,0,0,0,0,0,0,0,0,
0,0,21,-99,2014,-7,-17,9,59,0,0,0,0,0,0,0,0,0,0,0,
0,0,18,-96,2012,-6,-18,7,55,0,0,0,0,0,0,0,0,0,0,0,
0,0,18,-98,2018,-3,-18,4,59,0,0,0,0,0,0,0,0,0,0,0,
0,0,20,-105,2015,-4,-17,5,52,0,0,0,0,0,0,0,0,0,0,0,
0,0,9,-102,2017,-11,-16,4,39,0,0,0,0,0,0,0,0,0,0,0,
0,0,19,-96,2018,-9,-17,4,57,0,0,0,0,0,0,0,0,0,0,0,
0,0,13,-103,2023,-9,-16,2,48,0,0,0,0,0,0,0,0,0,0,0,
0,0,6,-104,2014,-5,-17,7,39,0,0,0,0,0,0,0,0,0,0,0,
0,0,14,-104,2023,-11,-17,2,45,0,0,0,0,0,0,0,0,0,0,0,
0,0,11,-106,2015,-8,-18,7,39,0,0,0,0,0,0,0,0,0,0,0,
0,0,12,-107,2014,-6,-14,5,42,0,0,0,0,0,0,0,0,0,0,0,
0,0,19,-97,2014,-5,-17,7,59,0,0,0,0,0,0,0,0,0,0,0,
0,0,21,-101,2014,-7,-16,2,51,0,0,0,0,0,0,0,0,0,0,0,
0,0,22,-108,2010,-8,-17,5,42,0,0,0,0,0,0,0,0,0,0,0,
0,0,19,-110,2019,-6,-17,3,46,0,0,0,0,0,0,0,0,0,0,0,
0,0,18,-105,2018,-9,-17,8,51,0,0,0,0,0,0,0,0,0,0,0,
0,0,20,-109,2010,-8,-17,10,44,0,0,0,0,0,0,0,0,0,0,0,
0,0,24,-111,2014,-5,-19,5,46,0,0,0,0,0,0,0,0,0,0,0,
0,0,20,-106,2017,-9,-17,5,48,0,0,0,0,0,0,0,0,0,0,0,
0,0,19,-101,2010,-4,-19,8,51,0,0,0,0,0,0,0,0,0,0,0,
0,0,16,-101,2017,-3,-18,7,56,0,0,0,0,0,0,0,0,0,0,0,
0,0,20,-109,2014,-5,-18,6,46,0,0,0,0,0,0,0,0,0,0,0,
0,0,12,-108,2016,-7,-16,6,41,0,0,0,0,0,0,0,0,0,0,0,
0,0,8,-101,2016,-7,-18,7,43,0,0,0,0,0,0,0,0,0,0,0,
0,0,19,-115,2019,-5,-18,5,43,0,0,0,0,0,0,0,0,0,0,0,
0,0,13,-107,2014,-8,-15,7,42,0,0,0,0,0,0,0,0,0,0,0,
0,0,17,-107,2019,-9,-18,6,46,0,0,0,0,0,0,0,0,0,0,0,
0,0,20,-112,2020,-6,-19,5,46,0,0,0,0,0,0,0,0,0,0,0,
0,0,17,-98,2016,-8,-19,4,50,0,0,0,0,0,0,0,0,0,0,0,
0,0,14,-110,2010,-7,-17,8,36,0,0,0,0,0,0,0,0,0,0,0,
0,0,17,-106,2015,-2,-19,6,49,0,0,0,0,0,0,0,0,0,0,0,
0,0,17,-108,2020,-8,-21,9,47,0,0,0,0,0,0,0,0,0,0,0,
0,0,18,-98,2019,-6,-18,7,60,0,0,0,0,0,0,0,0,0,0,0,
0,0,22,-108,2023,-7,-17,4,55,0,0,0,0,0,0,0,0,0,0,0,
0,0,14,-101,2014,-8,-17,7,47,0,0,0,0,0,0,0,0,0,0,0,
0,0,10,-109,2016,-8,-21,8,34,0,0,0,0,0,0,0,0,0,0,0,
0,0,20,-104,2010,-8,-18,5,43,0,0,0,0,0,0,0,0,0,0,0,
0,0,18,-107,2014,-5,-18,8,48,0,0,0,0,0,0,0,0,0,0,0,
0,0,13,-111,2013,-5,-19,6,35,0,0,0,0,0,0,0,0,0,0,0,
0,0,13,-105,2019,-6,-18,8,49,0,0,0,0,0,0,0,0,0,0,0,
0,0,16,-107,2011,-4,-19,13,48,0,0,0,0,0,0,0,0,0,0,0,
0,0,21,-113,2014,-6,-16,5,43,0,0,0,0,0,0,0,0,0,0,0,
0,0,20,-106,2019,-11,-17,8,51,0,0,0,0,0,0,0,0,0,0,0,
0,0,14,-110,2012,-7,-16,4,35,0,0,0,0,0,0,0,0,0,0,0,
0,0,19,-99,2021,-6,-18,9,64,0,0,0,0,0,0,0,0,0,0,0,
0,0,20,-100,2018,-6,-17,8,61,0,0,0,0,0,0,0,0,0,0,0,
0,0,19,-104,2017,-6,-20,8,52,0,0,0,0,0,0,0,0,0,0,0,
0,0,22,-114,2021,-7,-20,7,47,0,0,0,0,0,0,0,0,0,0,0,
0,0,17,-100,2017,-10,-17,9,54,0,0,0,0,0,0,0,0,0,0,0,
0,0,13,-101,2016,-4,-18,5,49,0,0,0,0,0,0,0,0,0,0,0,
0,0,18,-106,2018,-7,-17,3,47,0,0,0,0,0,0,0,0,0,0,0,
0,0,15,-107,2014,-11,-17,9,41,0,0,0,0,0,0,0,0,0,0,0,
0,0,17,-96,2018,-9,-18,8,58,0,0,0,0,0,0,0,0,0,0,0,
0,0,11,-108,2015,-9,-18,3,32,0,0,0,0,0,0,0,0,0,0,0,
0,0,17,-105,2011,-11,-17,2,35,0,0,0,0,0,0,0,0,0,0,0,
0,0,18,-112,2018,-9,-16,4,41,0,0,0,0,0,0,0,0,0,0,0,
0,0,17,-110,2018,-7,-18,4,42,0,0,0,0,0,0,0,0,0,0,0,
0,0,21,-107,2017,-6,-17,4,50,0,0,0,0,0,0,0,0,0,0,0,
0,0,15,-103,2022,-10,-16,6,52,0,0,0,0,0,0,0,0,0,0,0,
0,0,16,-101,2025,-6,-17,8,63,0,0,0,0,0,0,0,0,0,0,0,
0,0,16,-108,2015,-6,-19,6,42,0,0,0,0,0,0,0,0,0,0,0,
0,0,16,-109,2019,-6,-18,4,44,0,0,0,0,0,0,0,0,0,0,0,
0,0,18,-109,2013,-7,-17,4,40,0,0,0,0,0,0,0,0,0,0,0,
0,0,23,-112,2016,-10,-19,4,40,0,0,0,0,0,0,0,0,0,0,0,
0,0,15,-107,2022,-6,-19,8,51,0,0,0,0,0,0,0,0,0,0,0,
0,0,17,-102,2016,-9,-19,7,48,0,0,0,0,0,0,0,0,0,0,0,
0,0,14,-104,2023,-7,-19,5,50,0,0,0,0,0,0,0,0,0,0,0,
0,0,13,-109,2017,-5,-16,6,44,0,0,0,0,0,0,0,0,0,0,0,
0,0,12,-106,2021,-8,-18,8,47,0,0,0,0,0,0,0,0,0,0,0,
0,0,13,-111,2014,-7,-19,2,30,0,0,0,0,0,0,0,0,0,0,0,
0,0,17,-109,2015,-9,-18,6,40,0,0,0,0,0,0,0,0,0,0,0,
0,0,15,-110,2020,-7,-20,9,45,0,0,0,0,0,0,0,0,0,0,0,
0,0,14,-107,2014,-5,-16,4,42,0,0,0,0,0,0,0,0,0,0,0,
0,0,25,-104,2014,-9,-17,6,53,0,0,0,0,0,0,0,0,0,0,0,
0,0,18,-106,2011,-6,-20,9,44,0,0,0,0,0,0,0,0,0,0,0,
0,0,13,-105,2017,-12,-19,9,41,0,0,0,0,0,0,0,0,0,0,0,
0,0,19,-109,2018,-6,-19,7,48,0,0,0,0,0,0,0,0,0,0,0,
0,0,15,-101,2020,-6,-18,6,54,0,0,0,0,0,0,0,0,0,0,0,
0,0,21,-102,2017,-11,-14,6,55,0,0,0,0,0,0,0,0,0,0,0,
0,0,12,-112,2013,-8,-19,5,29,0,0,0,0,0,0,0,0,0,0,0,
0,0,16,-107,2014,-9,-15,6,43,0,0,0,0,0,0,0,0,0,0,0,
0,0,17,-106,2016,-8,-21,6,42,0,0,0,0,0,0,0,0,0,0,0,
0,0,19,-101,2023,-5,-18,6,62,0,0,0,0,0,0,0,0,0,0,0,
0,0,21,-114,2008,-5,-18,6,36,0,0,0,0,0,0,0,0,0,0,0,
0,0,15,-107,2018,-5,-13,7,53,0,0,0,0,0,0,0,0,0,0,0,
0,0,19,-105,2017,-6,-17,4,50,0,0,0,0,0,0,0,0,0,0,0,
0,0,23,-101,2018,-6,-17,7,62,0,0,0,0,0,0,0,0,0,0,0,
0,0,19,-109,2014,-6,-19,4,41,0,0,0,0,0,0,0,0,0,0,0,
0,0,12,-112,2015,-4,-20,9,38,0,0,0,0,0,0,0,0,0,0,0,
0,0,20,-109,2019,-4,-16,7,55,0,0,0,0,0,0,0,0,0,0,0,
0,0,14,-110,2022,-10,-18,6,42,0,0,0,0,0,0,0,0,0,0,0,
0,0,20,-110,2016,-9,-17,5,43,0,0,0,0,0,0,0,0,0,0,0,
0,0,20,-110,2016,-9,-17,5,43,0,0,0,0,0,0,0,0,0,0,0,
0,0,17,-97,2018,-5,-17,4,58,0,0,0,0,0,0,0,0,0,0,0,
0,0,16,-100,2017,-5,-18,10,58,0,0,0,0,0,0,0,0,0,0,0,
0,0,15,-103,2018,-3,-13,7,59,0,0,0,0,0,0,0,0,0,0,0,
0,0,15,-103,2018,-3,-13,7,59,0,0,0,0,0,0,0,0,0,0,0,
0,0,18,-103,2015,-5,-16,5,52,0,0,0,0,0,0,0,0,0,0,0,
0,0,17,-108,2013,-7,-17,8,44,0,0,0,0,0,0,0,0,0,0,0,
0,0,15,-109,2010,-8,-17,8,37,0,0,0,0,0,0,0,0,0,0,0,
0,0,21,-101,2012,-6,-18,7,53,0,0,0,0,0,0,0,0,0,0,0,
0,0,12,-106,2016,-9,-19,4,36,0,0,0,0,0,0,0,0,0,0,0,
0,0,12,-106,2016,-6,-16,5,43,0,0,0,0,0,0,0,0,0,0,0,
0,0,12,-100,2022,-9,-16,8,55,0,0,0,0,0,0,0,0,0,0,0,
0,0,18,-112,2016,-5,-19,4,40,0,0,0,0,0,0,0,0,0,0,0,
0,0,9,-102,2021,-11,-21,4,38,0,0,0,0,0,0,0,0,0,0,0,
0,0,16,-103,2014,-7,-20,5,43,0,0,0,0,0,0,0,0,0,0,0,
0,0,15,-110,2020,-7,-17,5,44,0,0,0,0,0,0,0,0,0,0,0,
0,0,19,-102,2016,-7,-19,6,51,0,0,0,0,0,0,0,0,0,0,0,
0,0,17,-104,2018,-8,-16,7,52,0,0,0,0,0,0,0,0,0,0,0,
0,0,21,-107,2016,-5,-19,4,48,0,0,0,0,0,0,0,0,0,0,0,
0,0,21,-108,2016,-6,-19,8,50,0,0,0,0,0,0,0,0,0,0,0,
0,0,13,-103,2022,-8,-19,5,48,0,0,0,0,0,0,0,0,0,0,0,
0,0,15,-109,2019,-8,-19,7,43,0,0,0,0,0,0,0,0,0,0,0,
0,0,20,-102,2010,-8,-17,8,49,0,0,0,0,0,0,0,0,0,0,0,
0,0,15,-102,2018,-7,-21,7,48,0,0,0,0,0,0,0,0,0,0,0,
0,0,16,-104,2009,-5,-17,6,43,0,0,0,0,0,0,0,0,0,0,0,
0,0,19,-107,2010,-8,-19,-1,31,0,0,0,0,0,0,0,0,0,0,0,
0,0,15,-104,2011,-7,-18,7,42,0,0,0,0,0,0,0,0,0,0,0,
0,0,23,-96,2010,-9,-20,4,50,0,0,0,0,0,0,0,0,0,0,0,
0,0,18,-106,2020,-7,-17,6,52,0,0,0,0,0,0,0,0,0,0,0,
0,0,14,-105,2012,-8,-21,9,39,0,0,0,0,0,0,0,0,0,0,0,
0,0,17,-99,2010,-8,-18,5,45,0,0,0,0,0,0,0,0,0,0,0,
0,0,18,-102,2022,-8,-17,5,56,0,0,0,0,0,0,0,0,0,0,0,
0,0,20,-106,2026,-9,-19,6,56,0,0,0,0,0,0,0,0,0,0,0,
0,0,18,-106,2019,-6,-17,6,52,0,0,0,0,0,0,0,0,0,0,0,
0,0,13,-112,2020,-8,-18,7,40,0,0,0,0,0,0,0,0,0,0,0,
0,0,19,-101,2024,-9,-14,10,67,0,0,0,0,0,0,0,0,0,0,0,
0,0,20,-103,2016,-8,-18,6,51,0,0,0,0,0,0,0,0,0,0,0,
0,0,18,-106,2017,-9,-17,5,46,0,0,0,0,0,0,0,0,0,0,0,
0,0,22,-106,2015,-10,-21,6,44,0,0,0,0,0,0,0,0,0,0,0,
0,0,10,-108,2019,-6,-17,6,42,0,0,0,0,0,0,0,0,0,0,0,
0,0,18,-109,2017,-6,-20,4,42,0,0,0,0,0,0,0,0,0,0,0,
0,0,19,-104,2016,-5,-17,3,50,0,0,0,0,0,0,0,0,0,0,0,
0,0,13,-105,2014,-7,-18,6,41,0,0,0,0,0,0,0,0,0,0,0,
0,0,20,-113,2022,-7,-15,4,49,0,0,0,0,0,0,0,0,0,0,0,
0,0,24,-102,2015,-4,-19,6,58,0,0,0,0,0,0,0,0,0,0,0,
0,0,19,-103,2020,-3,-16,9,64,0,0,0,0,0,0,0,0,0,0,0,
0,0,19,-104,2010,-8,-18,6,43,0,0,0,0,0,0,0,0,0,0,0,
0,0,20,-108,2015,-8,-18,7,46,0,0,0,0,0,0,0,0,0,0,0,
0,0,18,-103,2007,-8,-19,8,41,0,0,0,0,0,0,0,0,0,0,0,
0,0,20,-105,2013,-6,-15,4,49,0,0,0,0,0,0,0,0,0,0,0,
0,0,13,-106,2017,-11,-17,8,42,0,0,0,0,0,0,0,0,0,0,0,
0,0,14,-109,2014,-8,-19,2,32,0,0,0,0,0,0,0,0,0,0,0,
0,0,14,-108,2020,-6,-17,3,44,0,0,0,0,0,0,0,0,0,0,0,
0,0,15,-112,2017,-7,-18,2,35,0,0,0,0,0,0,0,0,0,0,0,
0,0,10,-105,2021,-6,-16,5,47,0,0,0,0,0,0,0,0,0,0,0,
0,0,16,-110,2014,-7,-17,6,40,0,0,0,0,0,0,0,0,0,0,0,
0,0,18,-104,2017,-8,-19,7,49,0,0,0,0,0,0,0,0,0,0,0,
0,0,15,-109,2015,-7,-18,8,42,0,0,0,0,0,0,0,0,0,0,0,
0,0,18,-112,2019,-6,-18,9,48,0,0,0,0,0,0,0,0,0,0,0,
0,0,18,-104,2014,-8,-18,6,46,0,0,0,0,0,0,0,0,0,0,0,
0,0,19,-108,2018,-8,-15,7,51,0,0,0,0,0,0,0,0,0,0,0,
0,0,15,-100,2017,-11,-19,7,47,0,0,0,0,0,0,0,0,0,0,0,
0,0,17,-109,2025,-5,-17,6,55,0,0,0,0,0,0,0,0,0,0,0,
0,0,14,-104,2011,-9,-18,5,37,0,0,0,0,0,0,0,0,0,0,0,
0,0,18,-102,2015,-9,-13,3,50,0,0,0,0,0,0,0,0,0,0,0,
0,0,16,-107,2024,-9,-17,5,50,0,0,0,0,0,0,0,0,0,0,0,
0,0,17,-104,2018,-7,-18,5,49,0,0,0,0,0,0,0,0,0,0,0,
0,0,19,-103,2016,-7,-18,8,53,0,0,0,0,0,0,0,0,0,0,0,
0,0,17,-101,2017,-7,-18,4,50,0,0,0,0,0,0,0,0,0,0,0,
0,0,16,-107,2021,-8,-17,7,50,0,0,0,0,0,0,0,0,0,0,0,
0,0,14,-104,2018,-7,-17,2,44,0,0,0,0,0,0,0,0,0,0,0,
0,0,20,-110,2020,-6,-17,4,49,0,0,0,0,0,0,0,0,0,0,0,
0,0,14,-106,2020,-9,-17,6,46,0,0,0,0,0,0,0,0,0,0,0,
0,0,19,-106,2015,-6,-16,7,51,0,0,0,0,0,0,0,0,0,0,0,
0,0,19,-103,2021,-7,-16,6,58,0,0,0,0,0,0,0,0,0,0,0,
0,0,18,-106,2021,-7,-18,8,54,0,0,0,0,0,0,0,0,0,0,0,
0,0,16,-104,2018,-10,-18,5,45,0,0,0,0,0,0,0,0,0,0,0,
0,0,19,-105,2019,-7,-20,8,52,0,0,0,0,0,0,0,0,0,0,0,
0,0,20,-96,2024,-7,-20,5,64,0,0,0,0,0,0,0,0,0,0,0,
0,0,15,-101,2017,-6,-15,5,53,0,0,0,0,0,0,0,0,0,0,0,
0,0,16,-110,2022,-7,-14,7,52,0,0,0,0,0,0,0,0,0,0,0,
0,0,21,-98,2016,-7,-18,6,58,0,0,0,0,0,0,0,0,0,0,0,
0,0,17,-109,2025,-6,-18,9,56,0,0,0,0,0,0,0,0,0,0,0,
0,0,18,-102,2016,-8,-17,3,48,0,0,0,0,0,0,0,0,0,0,0,
0,0,18,-100,2022,-8,-17,5,58,0,0,0,0,0,0,0,0,0,0,0,
0,0,19,-109,2016,-7,-18,7,46,0,0,0,0,0,0,0,0,0,0,0,
0,0,20,-109,2013,-8,-19,9,44,0,0,0,0,0,0,0,0,0,0,0,
0,0,16,-105,2021,-7,-18,7,52,0,0,0,0,0,0,0,0,0,0,0,
0,0,20,-116,2020,-7,-16,7,46,0,0,0,0,0,0,0,0,0,0,0,
0,0,17,-105,2016,-5,-16,9,54,0,0,0,0,0,0,0,0,0,0,0,
0,0,20,-108,2015,-6,-16,11,54,0,0,0,0,0,0,0,0,0,0,0,
0,0,16,-108,2015,-6,-18,6,43,0,0,0,0,0,0,0,0,0,0,0,
0,0,11,-107,2018,-6,-20,6,40,0,0,0,0,0,0,0,0,0,0,0,
0,0,19,-102,2015,-4,-17,7,56,0,0,0,0,0,0,0,0,0,0,0,
0,0,20,-101,2015,-4,-18,5,55,0,0,0,0,0,0,0,0,0,0,0,
0,0,18,-103,2021,-5,-17,5,57,0,0,0,0,0,0,0,0,0,0,0,
0,0,13,-106,2019,-7,-18,5,44,0,0,0,0,0,0,0,0,0,0,0,
0,0,20,-101,2018,-6,-16,7,60,0,0,0,0,0,0,0,0,0,0,0,
0,0,13,-103,2015,-9,-22,9,41,0,0,0,0,0,0,0,0,0,0,0,
0,0,22,-104,2018,-6,-18,7,57,0,0,0,0,0,0,0,0,0,0,0,
0,0,17,-112,2015,-2,-20,3,39,0,0,0,0,0,0,0,0,0,0,0,
0,0,12,-109,2015,-7,-18,1,32,0,0,0,0,0,0,0,0,0,0,0,
0,0,16,-98,2012,-12,-17,9,48,0,0,0,0,0,0,0,0,0,0,0,
0,0,18,-117,2023,-7,-18,1,38,0,0,0,0,0,0,0,0,0,0,0,
0,0,22,-108,2020,-8,-20,4,48,0,0,0,0,0,0,0,0,0,0,0,
0,0,19,-106,2019,-7,-18,6,51,0,0,0,0,0,0,0,0,0,0,0,
0,0,17,-107,2017,-8,-17,10,50,0,0,0,0,0,0,0,0,0,0,0,
0,0,22,-103,2017,-9,-19,4,50,0,0,0,0,0,0,0,0,0,0,0,
0,0,15,-107,2016,-7,-16,7,46,0,0,0,0,0,0,0,0,0,0,0,
0,0,15,-107,2016,-7,-16,7,46,0,0,0,0,0,0,0,0,0,0,0,
0,0,20,-112,2021,-1,-16,4,54,0,0,0,0,0,0,0,0,0,0,0,
0,0,16,-108,2020,-6,-20,6,46,0,0,0,0,0,0,0,0,0,0,0,
0,0,12,-110,2013,-7,-17,5,34,0,0,0,0,0,0,0,0,0,0,0,
0,0,12,-110,2013,-7,-17,5,34,0,0,0,0,0,0,0,0,0,0,0,
0,0,17,-101,2017,-8,-21,9,51,0,0,0,0,0,0,0,0,0,0,0,
0,0,21,-105,2013,-8,-20,8,47,0,0,0,0,0,0,0,0,0,0,0,
0,0,18,-107,2018,-5,-17,5,50,0,0,0,0,0,0,0,0,0,0,0,
0,0,15,-103,2016,-4,-16,10,56,0,0,0,0,0,0,0,0,0,0,0,
0,0,18,-101,2019,-4,-18,6,58,0,0,0,0,0,0,0,0,0,0,0,
0,0,18,-101,2019,-6,-17,7,58,0,0,0,0,0,0,0,0,0,0,0,
0,0,15,-104,2019,-6,-17,9,54,0,0,0,0,0,0,0,0,0,0,0,
0,0,19,-104,2017,-6,-19,7,52,0,0,0,0,0,0,0,0,0,0,0,
0,0,18,-101,2014,-6,-18,5,50,0,0,0,0,0,0,0,0,0,0,0,
0,0,19,-104,2013,-6,-15,9,54,0,0,0,0,0,0,0,0,0,0,0,
0,0,15,-118,2020,-8,-19,2,30,0,0,0,0,0,0,0,0,0,0,0,
0,0,21,-102,2020,-5,-20,8,60,0,0,0,0,0,0,0,0,0,0,0,
0,0,17,-112,2019,-8,-18,2,38,0,0,0,0,0,0,0,0,0,0,0,
0,0,20,-104,2017,-8,-16,5,52,0,0,0,0,0,0,0,0,0,0,0,
0,0,20,-104,2020,-3,-20,4,55,0,0,0,0,0,0,0,0,0,0,0,
0,0,17,-106,2019,-8,-19,6,47,0,0,0,0,0,0,0,0,0,0,0,
0,0,17,-107,2020,-4,-19,8,53,0,0,0,0,0,0,0,0,0,0,0,
0,0,13,-99,2014,-7,-19,3,43,0,0,0,0,0,0,0,0,0,0,0,
0,0,16,-107,2015,-6,-17,5,44,0,0,0,0,0,0,0,0,0,0,0,
0,0,19,-104,2016,-8,-17,6,50,0,0,0,0,0,0,0,0,0,0,0,
0,0,19,-111,2014,-10,-15,6,41,0,0,0,0,0,0,0,0,0,0,0,
0,0,20,-107,2021,-8,-18,6,52,0,0,0,0,0,0,0,0,0,0,0,
0,0,16,-105,2019,-8,-15,7,52,0,0,0,0,0,0,0,0,0,0,0,
0,0,14,-107,2020,-7,-17,9,50,0,0,0,0,0,0,0,0,0,0,0,
0,0,22,-110,2014,-10,-20,9,43,0,0,0,0,0,0,0,0,0,0,0,
0,0,16,-98,2020,-5,-17,7,61,0,0,0,0,0,0,0,0,0,0,0,
0,0,18,-106,2019,-5,-14,4,54,0,0,0,0,0,0,0,0,0,0,0,
0,0,22,-107,2022,-7,-18,6,56,0,0,0,0,0,0,0,0,0,0,0,
0,0,22,-107,2012,-9,-19,8,45,0,0,0,0,0,0,0,0,0,0,0,
0,0,14,-102,2020,-7,-17,6,52,0,0,0,0,0,0,0,0,0,0,0,
0,0,14,-106,2016,-6,-15,5,46,0,0,0,0,0,0,0,0,0,0,0,
0,0,20,-102,2020,-11,-18,7,54,0,0,0,0,0,0,0,0,0,0,0,
0,0,19,-106,2009,-9,-18,3,36,0,0,0,0,0,0,0,0,0,0,0,
0,0,14,-104,2021,-9,-19,6,47,0,0,0,0,0,0,0,0,0,0,0,
0,0,17,-105,2019,-8,-19,8,50,0,0,0,0,0,0,0,0,0,0,0,
0,0,14,-104,2020,-10,-18,9,49,0,0,0,0,0,0,0,0,0,0,0,
0,0,23,-110,2016,-4,-17,10,56,0,0,0,0,0,0,0,0,0,0,0,
0,0,19,-108,2014,-7,-18,3,41,0,0,0,0,0,0,0,0,0,0,0,
0,0,17,-106,2020,-8,-19,6,48,0,0,0,0,0,0,0,0,0,0,0,
0,0,17,-105,2022,-6,-18,7,55,0,0,0,0,0,0,0,0,0,0,0,
0,0,14,-105,2013,-6,-17,6,43,0,0,0,0,0,0,0,0,0,0,0,
0,0,23,-113,2010,-6,-20,5,37,0,0,0,0,0,0,0,0,0,0,0,
0,0,22,-98,2015,-9,-16,5,57,0,0,0,0,0,0,0,0,0,0,0,
0,0,24,-103,2013,-9,-20,6,49,0,0,0,0,0,0,0,0,0,0,0,
0,0,22,-103,2013,-8,-20,6,48,0,0,0,0,0,0,0,0,0,0,0,
0,0,12,-102,2017,-6,-18,4,45,0,0,0,0,0,0,0,0,0,0,0,
0,0,13,-105,2015,-7,-22,6,38,0,0,0,0,0,0,0,0,0,0,0,
0,0,12,-115,2011,-6,-17,7,30,0,0,0,0,0,0,0,0,0,0,0,
0,0,17,-103,2017,-4,-17,6,54,0,0,0,0,0,0,0,0,0,0,0,
0,0,15,-108,2019,-8,-18,8,46,0,0,0,0,0,0,0,0,0,0,0,
0,0,14,-105,2019,-7,-18,9,50,0,0,0,0,0,0,0,0,0,0,0,
0,0,14,-104,2023,-5,-16,8,58,0,0,0,0,0,0,0,0,0,0,0,
0,0,13,-108,2013,-10,-17,3,32,0,0,0,0,0,0,0,0,0,0,0,
0,0,13,-109,2020,-7,-17,5,43,0,0,0,0,0,0,0,0,0,0,0,
0,0,21,-111,2018,-8,-18,5,45,0,0,0,0,0,0,0,0,0,0,0,
0,0,21,-99,2017,-11,-18,6,54,0,0,0,0,0,0,0,0,0,0,0,
0,0,21,-105,2022,-9,-22,7,52,0,0,0,0,0,0,0,0,0,0,0,
0,0,14,-108,2016,-10,-18,5,37,0,0,0,0,0,0,0,0,0,0,0,
0,0,11,-105,2015,-8,-18,13,46,0,0,0,0,0,0,0,0,0,0,0,
0,0,14,-106,2015,-7,-21,9,42,0,0,0,0,0,0,0,0,0,0,0,
0,0,20,-99,2018,-9,-17,4,55,0,0,0,0,0,0,0,0,0,0,0,
0,0,16,-106,2018,-6,-20,5,45,0,0,0,0,0,0,0,0,0,0,0,
0,0,18,-102,2015,-7,-18,7,51,0,0,0,0,0,0,0,0,0,0,0,
0,0,16,-107,2019,-6,-20,9,49,0,0,0,0,0,0,0,0,0,0,0,
0,0,16,-101,2022,-1,-19,8,63,0,0,0,0,0,0,0,0,0,0,0,
0,0,17,-103,2018,-9,-19,6,48,0,0,0,0,0,0,0,0,0,0,0,
0,0,17,-110,2021,-8,-20,8,46,0,0,0,0,0,0,0,0,0,0,0,
0,0,17,-103,2011,-4,-17,9,51,0,0,0,0,0,0,0,0,0,0,0,
0,0,19,-103,2021,-9,-18,6,54,0,0,0,0,0,0,0,0,0,0,0,
0,0,22,-108,2019,-12,-20,5,44,0,0,0,0,0,0,0,0,0,0,0,
0,0,15,-103,2016,-8,-17,7,48,0,0,0,0,0,0,0,0,0,0,0,
0,0,20,-103,2021,-9,-19,5,53,0,0,0,0,0,0,0,0,0,0,0,
0,0,23,-105,2027,-5,-18,6,66,0,0,0,0,0,0,0,0,0,0,0,
0,0,23,-111,2017,-8,-16,9,52,0,0,0,0,0,0,0,0,0,0,0,
0,0,22,-110,2009,-10,-17,5,37,0,0,0,0,0,0,0,0,0,0,0,
0,0,15,-101,2025,-9,-16,8,60,0,0,0,0,0,0,0,0,0,0,0,
0,0,16,-106,2020,-7,-20,7,48,0,0,0,0,0,0,0,0,0,0,0,
0,0,18,-103,2016,-9,-16,5,49,0,0,0,0,0,0,0,0,0,0,0,
0,0,17,-109,2014,-8,-19,9,42,0,0,0,0,0,0,0,0,0,0,0,
0,0,16,-104,2014,-11,-16,6,43,0,0,0,0,0,0,0,0,0,0,0,
0,0,19,-102,2018,-5,-18,6,56,0,0,0,0,0,0,0,0,0,0,0,
0,0,21,-109,2018,-4,-15,8,57,0,0,0,0,0,0,0,0,0,0,0,
0,0,18,-106,2012,-8,-18,6,42,0,0,0,0,0,0,0,0,0,0,0,
0,0,17,-112,2013,-8,-18,7,37,0,0,0,0,0,0,0,0,0,0,0,
0,0,17,-104,2012,-5,-15,3,46,0,0,0,0,0,0,0,0,0,0,0,
0,0,16,-109,2018,-5,-15,3,46,0,0,0,0,0,0,0,0,0,0,0,
0,0,16,-104,2019,-9,-18,8,50,0,0,0,0,0,0,0,0,0,0,0,
0,0,18,-105,2019,-5,-19,6,52,0,0,0,0,0,0,0,0,0,0,0,
0,0,20,-104,2016,-5,-22,7,50,0,0,0,0,0,0,0,0,0,0,0,
0,0,14,-108,2017,-4,-15,4,46,0,0,0,0,0,0,0,0,0,0,0,
0,0,23,-109,2020,-8,-18,8,54,0,0,0,0,0,0,0,0,0,0,0,
0,0,16,-105,2018,-7,-18,9,51,0,0,0,0,0,0,0,0,0,0,0,
0,0,16,-106,2015,-7,-17,5,44,0,0,0,0,0,0,0,0,0,0,0,
0,0,17,-100,2015,-6,-19,4,49,0,0,0,0,0,0,0,0,0,0,0,
0,0,23,-106,2019,-8,-18,8,56,0,0,0,0,0,0,0,0,0,0,0,
0,0,19,-98,2019,-8,-17,3,56,0,0,0,0,0,0,0,0,0,0,0,
0,0,19,-108,2015,-7,-19,5,43,0,0,0,0,0,0,0,0,0,0,0,
0,0,19,-108,2021,-6,-19,6,51,0,0,0,0,0,0,0,0,0,0,0,
0,0,18,-111,2023,-6,-15,8,55,0,0,0,0,0,0,0,0,0,0,0,
0,0,17,-99,2016,-5,-18,4,53,0,0,0,0,0,0,0,0,0,0,0,
0,0,13,-110,2015,-4,-15,7,44,0,0,0,0,0,0,0,0,0,0,0,
0,0,12,-100,2021,-7,-17,5,52,0,0,0,0,0,0,0,0,0,0,0,
0,0,18,-105,2017,-7,-15,7,53,0,0,0,0,0,0,0,0,0,0,0,
0,0,14,-109,2016,-5,-19,5,40,0,0,0,0,0,0,0,0,0,0,0,
0,0,12,-113,2017,-5,-17,6,38,0,0,0,0,0,0,0,0,0,0,0,
0,0,15,-98,2018,-5,-17,6,57,0,0,0,0,0,0,0,0,0,0,0,
0,0,15,-98,2018,-6,-20,6,53,0,0,0,0,0,0,0,0,0,0,0,
0,0,19,-110,2016,-7,-20,7,43,0,0,0,0,0,0,0,0,0,0,0,
0,0,20,-101,2020,-6,-19,6,58,0,0,0,0,0,0,0,0,0,0,0,
0,0,18,-103,2013,-7,-19,8,48,0,0,0,0,0,0,0,0,0,0,0,
0,0,18,-103,2013,-8,-17,8,49,0,0,0,0,0,0,0,0,0,0,0,
0,0,22,-103,2010,-4,-18,7,52,0,0,0,0,0,0,0,0,0,0,0,
0,0,19,-105,2018,-6,-20,4,48,0,0,0,0,0,0,0,0,0,0,0,
0,0,15,-101,2016,-7,-19,6,48,0,0,0,0,0,0,0,0,0,0,0,
0,0,15,-101,2016,-9,-20,5,44,0,0,0,0,0,0,0,0,0,0,0,
0,0,23,-102,2017,-7,-16,6,59,0,0,0,0,0,0,0,0,0,0,0,
0,0,16,-95,2016,-7,-16,4,56,0,0,0,0,0,0,0,0,0,0,0,
0,0,22,-102,2020,-8,-17,7,60,0,0,0,0,0,0,0,0,0,0,0,
0,0,15,-105,2012,-7,-20,8,41,0,0,0,0,0,0,0,0,0,0,0,
0,0,20,-102,2019,-10,-16,6,55,0,0,0,0,0,0,0,0,0,0,0,
0,0,18,-110,2013,-6,-18,5,40,0,0,0,0,0,0,0,0,0,0,0,
0,0,21,-109,2022,-9,-18,5,50,0,0,0,0,0,0,0,0,0,0,0,
0,0,22,-101,2017,-6,-18,5,57,0,0,0,0,0,0,0,0,0,0,0,
0,0,17,-105,2019,-3,-18,8,56,0,0,0,0,0,0,0,0,0,0,0,
0,0,19,-105,2021,-8,-20,2,47,0,0,0,0,0,0,0,0,0,0,0,
0,0,20,-109,2023,-9,-18,6,51,0,0,0,0,0,0,0,0,0,0,0,
0,0,15,-102,2018,-9,-18,6,48,0,0,0,0,0,0,0,0,0,0,0,
0,0,18,-109,2019,-6,-16,8,52,0,0,0,0,0,0,0,0,0,0,0,
0,0,16,-101,2019,-8,-20,9,53,0,0,0,0,0,0,0,0,0,0,0,
0,0,16,-109,2010,-4,-17,7,41,0,0,0,0,0,0,0,0,0,0,0,
0,0,21,-99,2020,-5,-17,8,66,0,0,0,0,0,0,0,0,0,0,0,
0,0,14,-113,2028,-7,-19,4,45,0,0,0,0,0,0,0,0,0,0,0,
0,0,12,-100,2019,-3,-19,2,49,0,0,0,0,0,0,0,0,0,0,0,
0,0,15,-101,2020,-9,-20,5,48,0,0,0,0,0,0,0,0,0,0,0,
0,0,16,-104,2015,-9,-21,11,46,0,0,0,0,0,0,0,0,0,0,0,
0,0,18,-109,2021,-9,-20,4,43,0,0,0,0,0,0,0,0,0,0,0,
0,0,16,-103,2024,-5,-18,4,56,0,0,0,0,0,0,0,0,0,0,0,
0,0,21,-107,2014,-8,-15,9,52,0,0,0,0,0,0,0,0,0,0,0,
0,0,19,-114,2010,-7,-19,5,32,0,0,0,0,0,0,0,0,0,0,0,
0,0,19,-109,2015,-6,-19,4,42,0,0,0,0,0,0,0,0,0,0,0,
0,0,15,-104,2018,-9,-19,6,45,0,0,0,0,0,0,0,0,0,0,0,
0,0,22,-105,2022,-7,-17,12,65,0,0,0,0,0,0,0,0,0,0,0,
0,0,16,-107,2008,-6,-16,9,42,0,0,0,0,0,0,0,0,0,0,0,
0,0,12,-101,2025,-10,-16,6,54,0,0,0,0,0,0,0,0,0,0,0,
0,0,14,-115,2011,-8,-16,5,29,0,0,0,0,0,0,0,0,0,0,0,
0,0,20,-107,2012,-8,-17,5,43,0,0,0,0,0,0,0,0,0,0,0,
0,0,14,-104,2016,-11,-14,4,43,0,0,0,0,0,0,0,0,0,0,0,
0,0,14,-112,2013,-6,-18,3,32,0,0,0,0,0,0,0,0,0,0,0,
0,0,19,-107,2009,-8,-17,8,42,0,0,0,0,0,0,0,0,0,0,0,
0,0,14,-103,2020,-5,-18,7,53,0,0,0,0,0,0,0,0,0,0,0,
0,0,16,-107,2017,-6,-19,7,46,0,0,0,0,0,0,0,0,0,0,0,
0,0,12,-108,2017,-8,-18,1,34,0,0,0,0,0,0,0,0,0,0,0,
0,0,15,-99,2013,-12,-18,2,39,0,0,0,0,0,0,0,0,0,0,0,
0,0,14,-102,2020,-10,-18,7,49,0,0,0,0,0,0,0,0,0,0,0,
0,0,13,-105,2022,-6,-19,8,51,0,0,0,0,0,0,0,0,0,0,0,
0,0,16,-104,2014,-8,-16,6,46,0,0,0,0,0,0,0,0,0,0,0,
0,0,17,-106,2015,-9,-20,7,42,0,0,0,0,0,0,0,0,0,0,0,
0,0,16,-106,2024,-8,-20,10,54,0,0,0,0,0,0,0,0,0,0,0,
0,0,18,-107,2022,-9,-19,8,51,0,0,0,0,0,0,0,0,0,0,0,
0,0,23,-114,2017,-7,-17,7,47,0,0,0,0,0,0,0,0,0,0,0,
0,0,17,-107,2013,-9,-18,6,40,0,0,0,0,0,0,0,0,0,0,0,
0,0,11,-112,2011,-6,-16,7,33,0,0,0,0,0,0,0,0,0,0,0,
0,0,22,-104,2008,-7,-18,8,47,0,0,0,0,0,0,0,0,0,0,0,
0,0,17,-108,2027,-8,-19,5,52,0,0,0,0,0,0,0,0,0,0,0,
0,0,16,-106,2017,-8,-17,8,48,0,0,0,0,0,0,0,0,0,0,0,
0,0,23,-109,2020,-4,-20,5,53,0,0,0,0,0,0,0,0,0,0,0,
0,0,16,-114,2015,-8,-20,3,30,0,0,0,0,0,0,0,0,0,0,0,
0,0,23,-107,2019,-6,-17,6,56,0,0,0,0,0,0,0,0,0,0,0,
0,0,15,-107,2018,-7,-17,6,46,0,0,0,0,0,0,0,0,0,0,0,
0,0,13,-103,2015,-6,-17,5,45,0,0,0,0,0,0,0,0,0,0,0,
0,0,21,-108,2018,-8,-20,5,46,0,0,0,0,0,0,0,0,0,0,0,
0,0,19,-107,2015,-5,-18,8,50,0,0,0,0,0,0,0,0,0,0,0,
0,0,17,-103,2011,-8,-18,6,43,0,0,0,0,0,0,0,0,0,0,0,
0,0,20,-105,2016,-9,-18,12,54,0,0,0,0,0,0,0,0,0,0,0,
0,0,15,-109,2017,-7,-18,3,39,0,0,0,0,0,0,0,0,0,0,0,
0,0,21,-102,2011,-6,-19,6,49,0,0,0,0,0,0,0,0,0,0,0,
0,0,18,-105,2018,-6,-20,3,46,0,0,0,0,0,0,0,0,0,0,0,
0,0,23,-104,2016,-7,-17,6,55,0,0,0,0,0,0,0,0,0,0,0,
0,0,14,-104,2018,-6,-16,5,49,0,0,0,0,0,0,0,0,0,0,0,
0,0,19,-105,2017,-7,-15,1,48,0,0,0,0,0,0,0,0,0,0,0,
0,0,21,-106,2019,-8,-19,7,52,0,0,0,0,0,0,0,0,0,0,0,
0,0,18,-108,2024,-5,-18,9,58,0,0,0,0,0,0,0,0,0,0,0,
0,0,14,-105,2018,-8,-19,3,41,0,0,0,0,0,0,0,0,0,0,0,
0,0,14,-107,2014,-5,-17,7,44,0,0,0,0,0,0,0,0,0,0,0,
0,0,19,-107,2017,-7,-18,7,49,0,0,0,0,0,0,0,0,0,0,0,
0,0,22,-107,2023,-5,-17,10,64,0,0,0,0,0,0,0,0,0,0,0,
0,0,17,-107,2021,-9,-17,3,46,0,0,0,0,0,0,0,0,0,0,0,
0,0,15,-106,2017,-9,-19,6,42,0,0,0,0,0,0,0,0,0,0,0,
0,0,20,-101,2013,-8,-16,4,50,0,0,0,0,0,0,0,0,0,0,0,
0,0,17,-104,2016,-7,-18,8,50,0,0,0,0,0,0,0,0,0,0,0,
0,0,16,-104,2021,-3,-19,7,56,0,0,0,0,0,0,0,0,0,0,0,
0,0,23,-108,2020,-7,-18,4,52,0,0,0,0,0,0,0,0,0,0,0,
0,0,30,-102,2024,-11,-17,6,68,0,0,0,0,0,0,0,0,0,0,0,
0,0,22,-104,2017,-6,-18,9,58,0,0,0,0,0,0,0,0,0,0,0,
0,0,17,-100,2017,-6,-16,7,57,0,0,0,0,0,0,0,0,0,0,0,
0,0,21,-101,2017,-8,-16,3,54,0,0,0,0,0,0,0,0,0,0,0,
0,0,17,-113,2018,-5,-18,5,42,0,0,0,0,0,0,0,0,0,0,0,
0,0,16,-99,2014,-5,-18,10,56,0,0,0,0,0,0,0,0,0,0,0,
0,0,13,-101,2019,-5,-18,10,56,0,0,0,0,0,0,0,0,0,0,0,
0,0,19,-113,2014,-6,-15,4,41,0,0,0,0,0,0,0,0,0,0,0,
0,0,20,-102,2016,-8,-18,5,51,0,0,0,0,0,0,0,0,0,0,0,
0,0,19,-109,2023,-5,-17,6,55,0,0,0,0,0,0,0,0,0,0,0,
0,0,16,-110,2016,-8,-17,4,39,0,0,0,0,0,0,0,0,0,0,0,
0,0,17,-110,2017,-6,-17,2,41,0,0,0,0,0,0,0,0,0,0,0,
0,0,15,-106,2020,-6,-18,5,48,0,0,0,0,0,0,0,0,0,0,0,
0,0,13,-99,2024,-6,-20,7,57,0,0,0,0,0,0,0,0,0,0,0,
0,0,19,-105,2019,-7,-20,3,47,0,0,0,0,0,0,0,0,0,0,0,
0,0,14,-106,2018,-7,-19,4,42,0,0,0,0,0,0,0,0,0,0,0,
0,0,13,-102,2020,-10,-16,3,46,0,0,0,0,0,0,0,0,0,0,0,
0,0,17,-103,2022,-4,-16,6,60,0,0,0,0,0,0,0,0,0,0,0,
0,0,21,-110,2011,-10,-18,5,37,0,0,0,0,0,0,0,0,0,0,0,
0,0,14,-106,2019,-7,-19,5,44,0,0,0,0,0,0,0,0,0,0,0,
0,0,15,-103,2013,-10,-19,4,38,0,0,0,0,0,0,0,0,0,0,0,
0,0,19,-100,2010,-6,-16,9,54,0,0,0,0,0,0,0,0,0,0,0,
0,0,16,-109,2012,-8,-19,8,38,0,0,0,0,0,0,0,0,0,0,0,
0,0,16,-109,2012,-8,-19,8,38,0,0,0,0,0,0,0,0,0,0,0,
0,0,23,-105,2014,-7,-19,10,54,0,0,0,0,0,0,0,0,0,0,0,
0,0,14,-103,2019,-10,-18,7,47,0,0,0,0,0,0,0,0,0,0,0,
0,0,21,-108,2016,-2,-17,6,54,0,0,0,0,0,0,0,0,0,0,0,
0,0,21,-103,2018,-7,-16,9,60,0,0,0,0,0,0,0,0,0,0,0,
0,0,21,-103,2018,-4,-18,5,57,0,0,0,0,0,0,0,0,0,0,0,
0,0,13,-110,2015,-9,-18,5,34,0,0,0,0,0,0,0,0,0,0,0,
0,0,13,-106,2018,-6,-18,8,47,0,0,0,0,0,0,0,0,0,0,0,
0,0,15,-112,2017,-5,-20,8,41,0,0,0,0,0,0,0,0,0,0,0,
0,0,15,-112,2017,-8,-18,6,38,0,0,0,0,0,0,0,0,0,0,0,
0,0,13,-101,2019,-3,-20,7,53,0,0,0,0,0,0,0,0,0,0,0,
0,0,21,-106,2016,-8,-15,4,50,0,0,0,0,0,0,0,0,0,0,0,
0,0,14,-111,2022,-9,-15,1,40,0,0,0,0,0,0,0,0,0,0,0,
0,0,10,-99,2015,-6,-22,5,41,0,0,0,0,0,0,0,0,0,0,0,
0,0,19,-98,2018,-3,-18,5,61,0,0,0,0,0,0,0,0,0,0,0,
0,0,13,-103,2016,-7,-17,6,46,0,0,0,0,0,0,0,0,0,0,0,
0,0,15,-105,2020,-5,-16,13,60,0,0,0,0,0,0,0,0,0,0,0,
0,0,15,-114,2015,-5,-18,3,34,0,0,0,0,0,0,0,0,0,0,0,
0,0,12,-103,2017,-6,-19,6,45,0,0,0,0,0,0,0,0,0,0,0,
0,0,19,-102,2016,-8,-18,5,50,0,0,0,0,0,0,0,0,0,0,0,
0,0,9,-102,2016,-5,-18,7,45,0,0,0,0,0,0,0,0,0,0,0,
0,0,27,-107,2012,-5,-18,6,53,0,0,0,0,0,0,0,0,0,0,0,
0,0,20,-101,2019,-7,-18,6,57,0,0,0,0,0,0,0,0,0,0,0,
0,0,15,-102,2017,-6,-18,7,51,0,0,0,0,0,0,0,0,0,0,0,
0,0,15,-102,2022,-6,-15,6,58,0,0,0,0,0,0,0,0,0,0,0,
0,0,15,-102,2018,-5,-20,3,47,0,0,0,0,0,0,0,0,0,0,0,
0,0,16,-106,2017,-9,-18,6,44,0,0,0,0,0,0,0,0,0,0,0,
0,0,14,-102,2021,-6,-17,2,50,0,0,0,0,0,0,0,0,0,0,0,
0,0,16,-106,2012,-7,-17,6,42,0,0,0,0,0,0,0,0,0,0,0,
0,0,18,-103,2016,-7,-14,9,57,0,0,0,0,0,0,0,0,0,0,0,
0,0,20,-106,2022,-6,-19,6,55,0,0,0,0,0,0,0,0,0,0,0,
0,0,14,-107,2016,-8,-17,7,43,0,0,0,0,0,0,0,0,0,0,0,
0,0,16,-105,2016,-11,-20,6,40,0,0,0,0,0,0,0,0,0,0,0,
0,0,14,-105,2016,-6,-19,5,43,0,0,0,0,0,0,0,0,0,0,0,
0,0,16,-106,2006,-9,-19,5,31,0,0,0,0,0,0,0,0,0,0,0,
0,0,17,-113,2015,-3,-21,5,38,0,0,0,0,0,0,0,0,0,0,0,
0,0,16,-108,2022,-7,-20,10,51,0,0,0,0,0,0,0,0,0,0,0,
0,0,22,-104,2020,-7,-18,4,55,0,0,0,0,0,0,0,0,0,0,0,
0,0,17,-104,2016,-8,-18,7,48,0,0,0,0,0,0,0,0,0,0,0,
0,0,20,-107,2025,-9,-16,7,58,0,0,0,0,0,0,0,0,0,0,0,
0,0,17,-103,2018,-9,-20,5,46,0,0,0,0,0,0,0,0,0,0,0,
0,0,17,-108,2014,-5,-20,7,43,0,0,0,0,0,0,0,0,0,0,0,
0,0,10,-110,2018,-7,-18,7,38,0,0,0,0,0,0,0,0,0,0,0,
0,0,14,-99,2009,-3,-16,8,51,0,0,0,0,0,0,0,0,0,0,0,
0,0,13,-105,2018,-6,-18,7,47,0,0,0,0,0,0,0,0,0,0,0,
0,0,11,-103,2013,-5,-17,2,39,0,0,0,0,0,0,0,0,0,0,0,
0,0,20,-109,2022,-7,-15,6,55,0,0,0,0,0,0,0,0,0,0,0,
0,0,18,-104,2011,-6,-16,7,48,0,0,0,0,0,0,0,0,0,0,0,
0,0,14,-110,2021,-6,-17,10,50,0,0,0,0,0,0,0,0,0,0,0,
0,0,15,-107,2018,-7,-19,6,44,0,0,0,0,0,0,0,0,0,0,0,
0,0,18,-112,2024,-8,-18,4,46,0,0,0,0,0,0,0,0,0,0,0,
0,0,16,-102,2018,-7,-19,7,51,0,0,0,0,0,0,0,0,0,0,0,
0,0,23,-103,2022,-10,-17,7,60,0,0,0,0,0,0,0,0,0,0,0,
0,0,20,-105,2023,-5,-17,6,60,0,0,0,0,0,0,0,0,0,0,0,
0,0,12,-103,2015,-5,-16,5,46,0,0,0,0,0,0,0,0,0,0,0,
0,0,15,-112,2019,-7,-20,7,40,0,0,0,0,0,0,0,0,0,0,0,
0,0,19,-104,2006,-10,-18,6,37,0,0,0,0,0,0,0,0,0,0,0,
0,0,19,-104,2018,-9,-19,3,46,0,0,0,0,0,0,0,0,0,0,0,
0,0,12,-103,2017,-7,-18,4,43,0,0,0,0,0,0,0,0,0,0,0,
0,0,19,-98,2018,-10,-18,5,54,0,0,0,0,0,0,0,0,0,0,0,
0,0,15,-101,2016,-5,-18,7,52,0,0,0,0,0,0,0,0,0,0,0,
0,0,12,-107,2013,-8,-18,5,35,0,0,0,0,0,0,0,0,0,0,0,
0,0,18,-106,2018,-6,-20,3,45,0,0,0,0,0,0,0,0,0,0,0,
0,0,23,-111,2016,-5,-18,4,47,0,0,0,0,0,0,0,0,0,0,0,
0,0,10,-102,2015,-6,-19,8,44,0,0,0,0,0,0,0,0,0,0,0,
0,0,23,-104,2017,-10,-16,6,54,0,0,0,0,0,0,0,0,0,0,0,
0,0,17,-101,2016,-6,-18,5,51,0,0,0,0,0,0,0,0,0,0,0,
0,0,18,-107,2018,-9,-16,4,46,0,0,0,0,0,0,0,0,0,0,0,
0,0,18,-107,2022,-8,-19,3,47,0,0,0,0,0,0,0,0,0,0,0,
0,0,12,-107,2016,-7,-20,6,38,0,0,0,0,0,0,0,0,0,0,0,
0,0,21,-112,2013,-9,-18,6,39,0,0,0,0,0,0,0,0,0,0,0,
0,0,17,-102,2017,-8,-18,8,52,0,0,0,0,0,0,0,0,0,0,0,
0,0,13,-103,2020,-8,-19,8,49,0,0,0,0,0,0,0,0,0,0,0,
0,0,17,-105,2017,-4,-18,4,49,0,0,0,0,0,0,0,0,0,0,0,
0,0,18,-105,2014,-7,-20,7,45,0,0,0,0,0,0,0,0,0,0,0,
0,0,19,-103,2014,-7,-19,8,50,0,0,0,0,0,0,0,0,0,0,0,
0,0,13,-95,2011,-7,-19,7,48,0,0,0,0,0,0,0,0,0,0,0,
0,0,14,-108,2019,-10,-18,4,39,0,0,0,0,0,0,0,0,0,0,0,
0,0,17,-103,2013,-7,-19,5,44,0,0,0,0,0,0,0,0,0,0,0,
0,0,11,-108,2021,-7,-17,9,47,0,0,0,0,0,0,0,0,0,0,0,
0,0,20,-110,2020,-9,-21,5,43,0,0,0,0,0,0,0,0,0,0,0,
0,0,24,-102,2024,-6,-18,3,63,0,0,0,0,0,0,0,0,0,0,0,
0,0,13,-109,2015,-9,-18,9,39,0,0,0,0,0,0,0,0,0,0,0,
0,0,18,-107,2015,-5,-18,9,50,0,0,0,0,0,0,0,0,0,0,0,
0,0,19,-111,2020,-10,-21,4,39,0,0,0,0,0,0,0,0,0,0,0,
0,0,13,-105,2020,-9,-19,7,45,0,0,0,0,0,0,0,0,0,0,0,
0,0,16,-109,2016,-10,-16,4,39,0,0,0,0,0,0,0,0,0,0,0,
0,0,18,-108,2012,-7,-18,5,40,0,0,0,0,0,0,0,0,0,0,0,
0,0,17,-103,2019,-6,-20,3,48,0,0,0,0,0,0,0,0,0,0,0,
0,0,13,-103,2010,-9,-17,6,38,0,0,0,0,0,0,0,0,0,0,0,
0,0,16,-106,2012,-6,-20,4,38,0,0,0,0,0,0,0,0,0,0,0,
0,0,15,-103,2013,-1,-16,5,51,0,0,0,0,0,0,0,0,0,0,0,
0,0,19,-109,2015,-7,-17,4,43,0,0,0,0,0,0,0,0,0,0,0,
0,0,20,-99,2024,-6,-15,7,69,0,0,0,0,0,0,0,0,0,0,0,
0,0,16,-105,2020,-8,-19,4,46,0,0,0,0,0,0,0,0,0,0,0,
0,0,16,-108,2015,-3,-18,9,49,0,0,0,0,0,0,0,0,0,0,0,
0,0,20,-110,2016,-6,-17,6,47,0,0,0,0,0,0,0,0,0,0,0,
0,0,22,-104,2015,-7,-17,5,52,0,0,0,0,0,0,0,0,0,0,0,
0,0,15,-99,2020,-6,-18,8,58,0,0,0,0,0,0,0,0,0,0,0,
0,0,17,-104,2010,-10,-19,5,37,0,0,0,0,0,0,0,0,0,0,0,
0,0,21,-103,2021,-10,-17,6,56,0,0,0,0,0,0,0,0,0,0,0,
0,0,20,-101,2009,-7,-19,5,45,0,0,0,0,0,0,0,0,0,0,0,
0,0,18,-107,2015,-8,-20,7,43,0,0,0,0,0,0,0,0,0,0,0,
0,0,21,-109,2018,-9,-16,7,50,0,0,0,0,0,0,0,0,0,0,0,
0,0,15,-102,2019,-7,-18,8,53,0,0,0,0,0,0,0,0,0,0,0,
0,0,15,-103,2023,-5,-17,5,56,0,0,0,0,0,0,0,0,0,0,0,
0,0,19,-107,2024,-4,-18,3,55,0,0,0,0,0,0,0,0,0,0,0,
0,0,19,-107,2024,-4,-18,3,55,0,0,0,0,0,0,0,0,0,0,0,
0,0,18,-104,2016,-1,-17,7,57,0,0,0,0,0,0,0,0,0,0,0,
0,0,14,-108,2016,-6,-20,8,42,0,0,0,0,0,0,0,0,0,0,0,
0,0,19,-99,2015,-7,-20,7,53,0,0,0,0,0,0,0,0,0,0,0,
0,0,19,-99,2015,-7,-20,7,53,0,0,0,0,0,0,0,0,0,0,0,
0,0,16,-108,2016,-4,-19,6,45,0,0,0,0,0,0,0,0,0,0,0,
0,0,16,-107,2018,-7,-17,5,46,0,0,0,0,0,0,0,0,0,0,0,
0,0,19,-100,2019,-8,-18,5,55,0,0,0,0,0,0,0,0,0,0,0,
0,0,12,-101,2014,-7,-22,5,39,0,0,0,0,0,0,0,0,0,0,0,
0,0,12,-101,2014,-6,-16,8,49,0,0,0,0,0,0,0,0,0,0,0,
0,0,17,-104,2009,-7,-19,8,42,0,0,0,0,0,0,0,0,0,0,0,
0,0,16,-107,2013,-5,-17,7,45,0,0,0,0,0,0,0,0,0,0,0,
0,0,13,-105,2019,-6,-17,9,51,0,0,0,0,0,0,0,0,0,0,0,
0,0,26,-96,2024,-8,-16,3,71,0,0,0,0,0,0,0,0,0,0,0,
0,0,17,-107,2011,-7,-22,3,33,0,0,0,0,0,0,0,0,0,0,0,
0,0,14,-107,2021,-6,-20,9,49,0,0,0,0,0,0,0,0,0,0,0,
0,0,11,-102,2013,-6,-18,9,45,0,0,0,0,0,0,0,0,0,0,0,
0,0,15,-106,2010,-6,-19,6,38,0,0,0,0,0,0,0,0,0,0,0,
0,0,15,-106,2010,-5,-16,3,39,0,0,0,0,0,0,0,0,0,0,0,
0,0,15,-104,2018,-6,-19,8,50,0,0,0,0,0,0,0,0,0,0,0,
0,0,14,-105,2026,-6,-16,6,57,0,0,0,0,0,0,0,0,0,0,0,
0,0,22,-107,2014,-7,-16,6,50,0,0,0,0,0,0,0,0,0,0,0,
0,0,15,-104,2023,-9,-19,4,48,0,0,0,0,0,0,0,0,0,0,0,
0,0,26,-105,2012,-7,-18,8,54,0,0,0,0,0,0,0,0,0,0,0,
0,0,19,-100,2019,-5,-20,8,59,0,0,0,0,0,0,0,0,0,0,0,
0,0,19,-108,2012,-9,-16,1,37,0,0,0,0,0,0,0,0,0,0,0,
0,0,15,-101,2016,-8,-17,5,48,0,0,0,0,0,0,0,0,0,0,0,
0,0,13,-109,2021,-3,-19,10,51,0,0,0,0,0,0,0,0,0,0,0,
0,0,16,-107,2014,-8,-17,2,38,0,0,0,0,0,0,0,0,0,0,0,
0,0,17,-106,2013,-7,-18,5,42,0,0,0,0,0,0,0,0,0,0,0,
0,0,19,-104,2025,-7,-17,5,59,0,0,0,0,0,0,0,0,0,0,0,
0,0,20,-107,2013,-3,-18,9,52,0,0,0,0,0,0,0,0,0,0,0,
0,0,12,-104,2017,-9,-19,6,41,0,0,0,0,0,0,0,0,0,0,0,
0,0,12,-104,2014,-10,-19,5,36,0,0,0,0,0,0,0,0,0,0,0,
0,0,19,-105,2017,-6,-19,6,50,0,0,0,0,0,0,0,0,0,0,0,
0,0,24,-107,2017,-10,-18,6,50,0,0,0,0,0,0,0,0,0,0,0,
0,0,12,-102,2016,-5,-17,2,44,0,0,0,0,0,0,0,0,0,0,0,
0,0,18,-101,2023,-6,-19,7,60,0,0,0,0,0,0,0,0,0,0,0,
0,0,17,-109,2010,-9,-19,3,31,0,0,0,0,0,0,0,0,0,0,0,
0,0,21,-104,2017,-7,-19,5,51,0,0,0,0,0,0,0,0,0,0,0,
0,0,18,-104,2019,-8,-15,3,51,0,0,0,0,0,0,0,0,0,0,0,
0,0,19,-108,2022,-10,-21,6,46,0,0,0,0,0,0,0,0,0,0,0,
0,0,17,-102,2010,-9,-21,7,40,0,0,0,0,0,0,0,0,0,0,0,
0,0,20,-110,2012,-6,-17,8,45,0,0,0,0,0,0,0,0,0,0,0,
0,0,19,-100,2013,-4,-19,6,53,0,0,0,0,0,0,0,0,0,0,0,
0,0,20,-110,2021,-9,-15,6,51,0,0,0,0,0,0,0,0,0,0,0,
0,0,13,-110,2016,-8,-18,7,38,0,0,0,0,0,0,0,0,0,0,0,
0,0,16,-115,2022,-9,-15,8,45,0,0,0,0,0,0,0,0,0,0,0,
0,0,16,-109,2016,-6,-18,5,42,0,0,0,0,0,0,0,0,0,0,0,
0,0,17,-111,2020,-3,-18,6,49,0,0,0,0,0,0,0,0,0,0,0,
0,0,14,-101,2020,-7,-22,6,48,0,0,0,0,0,0,0,0,0,0,0,
0,0,20,-101,2013,-8,-20,8,50,0,0,0,0,0,0,0,0,0,0,0,
0,0,17,-102,2016,-6,-15,7,55,0,0,0,0,0,0,0,0,0,0,0,
0,0,16,-98,2016,-7,-19,8,54,0,0,0,0,0,0,0,0,0,0,0,
0,0,13,-112,2023,-8,-20,6,40,0,0,0,0,0,0,0,0,0,0,0,
0,0,12,-102,2022,-9,-17,7,51,0,0,0,0,0,0,0,0,0,0,0,
0,0,11,-100,2017,-7,-17,7,49,0,0,0,0,0,0,0,0,0,0,0,
0,0,16,-107,2017,-7,-19,3,41,0,0,0,0,0,0,0,0,0,0,0,
0,0,17,-106,2015,-9,-19,7,43,0,0,0,0,0,0,0,0,0,0,0,
0,0,21,-112,2014,-10,-15,9,45,0,0,0,0,0,0,0,0,0,0,0,
0,0,15,-107,2019,-6,-19,9,49,0,0,0,0,0,0,0,0,0,0,0,
0,0,17,-105,2019,-4,-18,5,52,0,0,0,0,0,0,0,0,0,0,0,
0,0,9,-105,2019,-9,-20,3,35,0,0,0,0,0,0,0,0,0,0,0,
0,0,15,-107,2023,-8,-13,5,53,0,0,0,0,0,0,0,0,0,0,0,
0,0,20,-103,2020,-6,-19,4,54,0,0,0,0,0,0,0,0,0,0,0,
0,0,15,-107,2016,-9,-17,3,39,0,0,0,0,0,0,0,0,0,0,0,
0,0,18,-106,2015,-8,-18,5,44,0,0,0,0,0,0,0,0,0,0,0,
0,0,20,-111,2016,-9,-18,7,43,0,0,0,0,0,0,0,0,0,0,0,
0,0,14,-115,2011,-7,-17,6,30,0,0,0,0,0,0,0,0,0,0,0,
0,0,25,-104,2015,-9,-18,4,51,0,0,0,0,0,0,0,0,0,0,0,
0,0,14,-106,2018,-8,-18,5,43,0,0,0,0,0,0,0,0,0,0,0,
0,0,13,-98,2023,-11,-18,10,57,0,0,0,0,0,0,0,0,0,0,0,
0,0,17,-98,2010,-7,-22,7,45,0,0,0,0,0,0,0,0,0,0,0,
0,0,12,-103,2013,-6,-19,5,40,0,0,0,0,0,0,0,0,0,0,0,
0,0,12,-111,2017,-6,-18,6,38,0,0,0,0,0,0,0,0,0,0,0,
0,0,19,-111,2016,-9,-16,8,45,0,0,0,0,0,0,0,0,0,0,0,
0,0,14,-100,2018,-8,-17,8,53,0,0,0,0,0,0,0,0,0,0,0,
0,0,17,-102,2018,-9,-18,2,46,0,0,0,0,0,0,0,0,0,0,0,
0,0,16,-112,2012,-5,-18,4,35,0,0,0,0,0,0,0,0,0,0,0,
0,0,20,-108,2016,-7,-20,5,44,0,0,0,0,0,0,0,0,0,0,0,
0,0,13,-108,2015,-5,-21,7,39,0,0,0,0,0,0,0,0,0,0,0,
0,0,22,-102,2015,-10,-18,5,50,0,0,0,0,0,0,0,0,0,0,0,
0,0,19,-105,2017,-9,-17,8,51,0,0,0,0,0,0,0,0,0,0,0,
0,0,17,-111,2013,-9,-19,8,37,0,0,0,0,0,0,0,0,0,0,0,
0,0,11,-108,2019,-7,-20,5,38,0,0,0,0,0,0,0,0,0,0,0,
0,0,16,-113,2017,-6,-17,6,41,0,0,0,0,0,0,0,0,0,0,0,
0,0,19,-102,2013,-7,-19,9,51,0,0,0,0,0,0,0,0,0,0,0,
0,0,17,-109,2016,-7,-18,6,43,0,0,0,0,0,0,0,0,0,0,0,
0,0,16,-101,2015,-9,-20,7,46,0,0,0,0,0,0,0,0,0,0,0,
0,0,20,-101,2014,-7,-22,4,46,0,0,0,0,0,0,0,0,0,0,0,
0,0,17,-107,2012,-10,-18,5,37,0,0,0,0,0,0,0,0,0,0,0,
0,0,21,-103,2016,-7,-16,5,54,0,0,0,0,0,0,0,0,0,0,0,
0,0,20,-108,2018,-9,-16,8,51,0,0,0,0,0,0,0,0,0,0,0,
0,0,12,-103,2015,-10,-19,5,38,0,0,0,0,0,0,0,0,0,0,0,
0,0,13,-101,2021,-6,-16,7,56,0,0,0,0,0,0,0,0,0,0,0,
0,0,13,-107,2020,-2,-17,11,56,0,0,0,0,0,0,0,0,0,0,0,
0,0,20,-100,2014,-7,-19,9,55,0,0,0,0,0,0,0,0,0,0,0,
0,0,15,-102,2016,-10,-19,6,44,0,0,0,0,0,0,0,0,0,0,0,
0,0,21,-106,2021,-7,-21,8,54,0,0,0,0,0,0,0,0,0,0,0,
0,0,14,-109,2016,-7,-18,5,39,0,0,0,0,0,0,0,0,0,0,0,
0,0,13,-105,2018,-8,-20,4,40,0,0,0,0,0,0,0,0,0,0,0,
0,0,17,-104,2018,-8,-20,4,45,0,0,0,0,0,0,0,0,0,0,0,
0,0,16,-106,2015,-9,-20,3,37,0,0,0,0,0,0,0,0,0,0,0,
0,0,17,-104,2014,-10,-19,5,41,0,0,0,0,0,0,0,0,0,0,0,
0,0,24,-110,2018,-10,-16,5,49,0,0,0,0,0,0,0,0,0,0,0,
0,0,20,-106,2016,-8,-19,3,44,0,0,0,0,0,0,0,0,0,0,0,
0,0,19,-105,2019,-3,-20,6,54,0,0,0,0,0,0,0,0,0,0,0,
0,0,19,-103,2017,-9,-13,4,53,0,0,0,0,0,0,0,0,0,0,0,
0,0,14,-99,2014,-7,-20,5,45,0,0,0,0,0,0,0,0,0,0,0,
0,0,14,-108,2015,-5,-22,7,39,0,0,0,0,0,0,0,0,0,0,0,
0,0,14,-108,2015,-5,-22,7,39,0,0,0,0,0,0,0,0,0,0,0,
0,0,16,-104,2012,-6,-17,5,44,0,0,0,0,0,0,0,0,0,0,0,
0,0,18,-105,2010,-6,-18,5,42,0,0,0,0,0,0,0,0,0,0,0,
0,0,13,-105,2015,-7,-18,3,39,0,0,0,0,0,0,0,0,0,0,0,
0,0,13,-105,2015,-6,-16,7,46,0,0,0,0,0,0,0,0,0,0,0,
0,0,15,-112,2017,-11,-19,5,33,0,0,0,0,0,0,0,0,0,0,0,
0,0,14,-105,2017,-8,-15,6,47,0,0,0,0,0,0,0,0,0,0,0,
0,0,20,-106,2011,-8,-19,8,44,0,0,0,0,0,0,0,0,0,0,0,
0,0,20,-106,2011,-7,-20,1,37,0,0,0,0,0,0,0,0,0,0,0,
0,0,14,-110,2013,-6,-18,3,34,0,0,0,0,0,0,0,0,0,0,0,
0,0,17,-100,2019,-7,-22,11,56,0,0,0,0,0,0,0,0,0,0,0,
0,0,22,-97,2017,-6,-17,9,66,0,0,0,0,0,0,0,0,0,0,0,
0,0,25,-104,2015,-7,-19,5,53,0,0,0,0,0,0,0,0,0,0,0,
0,0,22,-99,2026,-8,-17,6,68,0,0,0,0,0,0,0,0,0,0,0,
0,0,12,-108,2019,-4,-19,7,45,0,0,0,0,0,0,0,0,0,0,0,
0,0,16,-105,2019,-6,-19,7,50,0,0,0,0,0,0,0,0,0,0,0,
0,0,17,-102,2018,-3,-18,10,60,0,0,0,0,0,0,0,0,0,0,0,
0,0,19,-104,2013,-6,-21,4,43,0,0,0,0,0,0,0,0,0,0,0,
0,0,15,-106,2020,-8,-19,6,46,0,0,0,0,0,0,0,0,0,0,0,
0,0,18,-102,2020,-9,-18,6,53,0,0,0,0,0,0,0,0,0,0,0,
0,0,16,-105,2009,-4,-17,8,45,0,0,0,0,0,0,0,0,0,0,0,
0,0,22,-103,2014,-6,-16,6,55,0,0,0,0,0,0,0,0,0,0,0,
0,0,11,-106,2023,-6,-23,2,39,0,0,0,0,0,0,0,0,0,0,0,
0,0,11,-99,2020,-7,-16,7,54,0,0,0,0,0,0,0,0,0,0,0,
0,0,14,-103,2012,-6,-20,9,44,0,0,0,0,0,0,0,0,0,0,0,
0,0,19,-99,2014,-10,-18,7,51,0,0,0,0,0,0,0,0,0,0,0,
0,0,17,-98,2022,-8,-18,6,59,0,0,0,0,0,0,0,0,0,0,0,
0,0,12,-108,2016,-7,-20,6,37,0,0,0,0,0,0,0,0,0,0,0,
0,0,13,-108,2019,-8,-17,6,43,0,0,0,0,0,0,0,0,0,0,0,
0,0,22,-104,2022,-7,-21,7,57,0,0,0,0,0,0,0,0,0,0,0,
0,0,14,-107,2020,-9,-20,6,42,0,0,0,0,0,0,0,0,0,0,0,
0,0,18,-103,2017,-8,-20,8,50,0,0,0,0,0,0,0,0,0,0,0,
0,0,19,-104,2020,-7,-19,7,54,0,0,0,0,0,0,0,0,0,0,0,
0,0,23,-102,2008,-8,-16,3,46,0,0,0,0,0,0,0,0,0,0,0,
0,0,16,-108,2013,-5,-18,6,42,0,0,0,0,0,0,0,0,0,0,0,
0,0,15,-103,2015,-9,-17,5,44,0,0,0,0,0,0,0,0,0,0,0,
0,0,18,-104,2017,-7,-20,8,50,0,0,0,0,0,0,0,0,0,0,0,
0,0,16,-107,2019,-5,-21,7,47,0,0,0,0,0,0,0,0,0,0,0,
0,0,17,-101,2011,-8,-19,4,42,0,0,0,0,0,0,0,0,0,0,0,
0,0,14,-111,2014,-8,-13,5,39,0,0,0,0,0,0,0,0,0,0,0,
0,0,15,-105,2027,-10,-18,5,52,0,0,0,0,0,0,0,0,0,0,0,
0,0,18,-104,2018,-6,-18,4,50,0,0,0,0,0,0,0,0,0,0,0,
0,0,10,-99,2023,-8,-20,6,50,0,0,0,0,0,0,0,0,0,0,0,
0,0,15,-103,2010,-5,-19,3,39,0,0,0,0,0,0,0,0,0,0,0,
0,0,16,-105,2018,-7,-18,3,45,0,0,0,0,0,0,0,0,0,0,0,
0,0,16,-105,2015,-9,-17,8,46,0,0,0,0,0,0,0,0,0,0,0,
0,0,21,-105,2023,-7,-16,6,60,0,0,0,0,0,0,0,0,0,0,0,
0,0,10,-105,2016,-8,-19,5,37,0,0,0,0,0,0,0,0,0,0,0,
0,0,14,-102,2017,-6,-17,4,48,0,0,0,0,0,0,0,0,0,0,0,
0,0,23,-111,2011,-6,-19,5,41,0,0,0,0,0,0,0,0,0,0,0,
0,0,15,-106,2025,-7,-19,9,55,0,0,0,0,0,0,0,0,0,0,0,
0,0,19,-102,2017,-7,-18,8,55,0,0,0,0,0,0,0,0,0,0,0,
0,0,19,-110,2020,-6,-17,9,53,0,0,0,0,0,0,0,0,0,0,0,
0,0,22,-103,2021,-6,-21,6,57,0,0,0,0,0,0,0,0,0,0,0,
0,0,21,-107,2011,-9,-20,6,40,0,0,0,0,0,0,0,0,0,0,0,
0,0,16,-101,2024,-6,-19,6,58,0,0,0,0,0,0,0,0,0,0,0,
0,0,11,-106,2014,-7,-19,7,38,0,0,0,0,0,0,0,0,0,0,0,
0,0,17,-105,2012,-8,-15,5,44,0,0,0,0,0,0,0,0,0,0,0,
0,0,12,-108,2018,-4,-18,6,44,0,0,0,0,0,0,0,0,0,0,0,
0,0,18,-106,2014,-10,-17,5,42,0,0,0,0,0,0,0,0,0,0,0,
0,0,16,-102,2016,-7,-18,6,49,0,0,0,0,0,0,0,0,0,0,0,
0,0,20,-105,2015,-5,-20,5,48,0,0,0,0,0,0,0,0,0,0,0,
0,0,18,-108,2019,-5,-15,4,51,0,0,0,0,0,0,0,0,0,0,0,
0,0,14,-102,2015,-5,-21,10,49,0,0,0,0,0,0,0,0,0,0,0,
0,0,16,-106,2016,-7,-19,8,46,0,0,0,0,0,0,0,0,0,0,0,
0,0,19,-100,2014,-8,-18,5,50,0,0,0,0,0,0,0,0,0,0,0,
0,0,11,-114,2018,-6,-16,7,38,0,0,0,0,0,0,0,0,0,0,0,
0,0,16,-108,2022,-5,-21,5,47,0,0,0,0,0,0,0,0,0,0,0,
0,0,21,-103,2011,-7,-15,8,53,0,0,0,0,0,0,0,0,0,0,0,
0,0,17,-109,2014,-3,-18,6,45,0,0,0,0,0,0,0,0,0,0,0,
0,0,19,-107,2011,-8,-17,4,40,0,0,0,0,0,0,0,0,0,0,0,
0,0,18,-109,2015,-6,-17,6,45,0,0,0,0,0,0,0,0,0,0,0,
0,0,15,-111,2019,-5,-21,8,43,0,0,0,0,0,0,0,0,0,0,0,
0,0,13,-104,2018,-5,-17,2,45,0,0,0,0,0,0,0,0,0,0,0,
0,0,15,-108,2020,-6,-17,5,47,0,0,0,0,0,0,0,0,0,0,0,
0,0,17,-106,2014,-7,-18,3,41,0,0,0,0,0,0,0,0,0,0,0,
0,0,14,-105,2015,-8,-19,6,41,0,0,0,0,0,0,0,0,0,0,0,
0,0,16,-106,2009,-8,-18,8,39,0,0,0,0,0,0,0,0,0,0,0,
0,0,17,-115,2012,-4,-19,9,38,0,0,0,0,0,0,0,0,0,0,0,
0,0,14,-99,2026,-5,-15,9,68,0,0,0,0,0,0,0,0,0,0,0,
0,0,22,-102,2015,-7,-18,3,51,0,0,0,0,0,0,0,0,0,0,0,
0,0,19,-96,2016,-7,-18,6,58,0,0,0,0,0,0,0,0,0,0,0,
0,0,11,-101,2016,-6,-19,8,47,0,0,0,0,0,0,0,0,0,0,0,
0,0,20,-103,2018,-14,-16,5,48,0,0,0,0,0,0,0,0,0,0,0,
0,0,17,-101,2015,-8,-17,5,49,0,0,0,0,0,0,0,0,0,0,0,
0,0,16,-107,2015,-6,-21,5,40,0,0,0,0,0,0,0,0,0,0,0,
0,0,18,-98,2021,-8,-19,6,58,0,0,0,0,0,0,0,0,0,0,0,
0,0,20,-113,2017,-5,-18,8,47,0,0,0,0,0,0,0,0,0,0,0,
0,0,21,-99,2027,-4,-17,5,71,0,0,0,0,0,0,0,0,0,0,0,
0,0,17,-109,2016,-6,-22,7,41,0,0,0,0,0,0,0,0,0,0,0,
0,0,14,-102,2018,-7,-16,9,54,0,0,0,0,0,0,0,0,0,0,0,
0,0,16,-103,2021,-7,-20,9,54,0,0,0,0,0,0,0,0,0,0,0,
0,0,12,-103,2009,-11,-16,6,35,0,0,0,0,0,0,0,0,0,0,0,
0,0,17,-107,2016,-7,-19,8,46,0,0,0,0,0,0,0,0,0,0,0,
0,0,12,-111,2015,-7,-17,7,37,0,0,0,0,0,0,0,0,0,0,0,
0,0,16,-105,2015,-10,-18,7,43,0,0,0,0,0,0,0,0,0,0,0,
0,0,18,-102,2015,-6,-19,4,48,0,0,0,0,0,0,0,0,0,0,0,
0,0,17,-105,2013,-5,-19,4,43,0,0,0,0,0,0,0,0,0,0,0,
0,0,25,-95,2020,-6,-17,5,70,0,0,0,0,0,0,0,0,0,0,0,
0,0,17,-105,2011,-9,-18,6,40,0,0,0,0,0,0,0,0,0,0,0,
0,0,17,-113,2011,-6,-20,9,36,0,0,0,0,0,0,0,0,0,0,0,
0,0,22,-107,2018,-8,-20,8,51,0,0,0,0,0,0,0,0,0,0,0,
0,0,14,-105,2018,-9,-18,4,42,0,0,0,0,0,0,0,0,0,0,0,
0,0,21,-107,2010,-8,-21,7,40,0,0,0,0,0,0,0,0,0,0,0,
0,0,18,-107,2016,-6,-19,5,45,0,0,0,0,0,0,0,0,0,0,0,
0,0,19,-100,2019,-9,-19,5,53,0,0,0,0,0,0,0,0,0,0,0,
0,0,23,-105,2017,-11,-21,8,49,0,0,0,0,0,0,0,0,0,0,0,
0,0,13,-104,2024,-6,-16,3,52,0,0,0,0,0,0,0,0,0,0,0,
0,0,15,-106,2014,-8,-17,1,37,0,0,0,0,0,0,0,0,0,0,0,
0,0,19,-102,2021,-5,-20,8,59,0,0,0,0,0,0,0,0,0,0,0,
0,0,14,-106,2011,-11,-17,3,32,0,0,0,0,0,0,0,0,0,0,0,
0,0,14,-106,2011,-11,-17,3,32,0,0,0,0,0,0,0,0,0,0,0,
0,0,9,-103,2018,-9,-21,5,37,0,0,0,0,0,0,0,0,0,0,0,
0,0,17,-115,2021,-9,-19,8,41,0,0,0,0,0,0,0,0,0,0,0,
0,0,23,-103,2023,-5,-18,6,64,0,0,0,0,0,0,0,0,0,0,0,
0,0,23,-103,2023,-7,-19,11,66,0,0,0,0,0,0,0,0,0,0,0,
0,0,13,-98,2022,-6,-19,5,55,0,0,0,0,0,0,0,0,0,0,0,
0,0,19,-104,2011,-7,-18,6,45,0,0,0,0,0,0,0,0,0,0,0,
0,0,19,-108,2015,-12,-19,2,35,0,0,0,0,0,0,0,0,0,0,0,
0,0,19,-108,2015,-11,-19,5,39,0,0,0,0,0,0,0,0,0,0,0,
0,0,18,-106,2011,-8,-21,4,36,0,0,0,0,0,0,0,0,0,0,0,
0,0,14,-112,2009,-9,-18,6,28,0,0,0,0,0,0,0,0,0,0,0,
0,0,20,-110,2010,-8,-21,8,37,0,0,0,0,0,0,0,0,0,0,0,
0,0,16,-108,2017,-9,-16,6,44,0,0,0,0,0,0,0,0,0,0,0,
0,0,27,-106,2017,-7,-17,8,60,0,0,0,0,0,0,0,0,0,0,0,
0,0,18,-107,2016,-12,-16,5,42,0,0,0,0,0,0,0,0,0,0,0,
0,0,21,-96,2013,-8,-15,6,59,0,0,0,0,0,0,0,0,0,0,0,
0,0,19,-104,2015,-5,-20,7,50,0,0,0,0,0,0,0,0,0,0,0,
0,0,17,-108,2019,-5,-16,7,52,0,0,0,0,0,0,0,0,0,0,0,
0,0,26,-103,2017,-7,-19,9,61,0,0,0,0,0,0,0,0,0,0,0,
0,0,18,-98,2017,-5,-18,7,59,0,0,0,0,0,0,0,0,0,0,0,
0,0,18,-98,2017,-8,-19,7,55,0,0,0,0,0,0,0,0,0,0,0,
0,0,15,-98,2014,-5,-18,3,49,0,0,0,0,0,0,0,0,0,0,0,
0,0,14,-112,2012,-9,-16,4,31,0,0,0,0,0,0,0,0,0,0,0,
0,0,17,-105,2022,-5,-21,5,51,0,0,0,0,0,0,0,0,0,0,0,
0,0,15,-100,2014,-10,-18,8,47,0,0,0,0,0,0,0,0,0,0,0,
0,0,17,-102,2014,-11,-18,6,44,0,0,0,0,0,0,0,0,0,0,0,
0,0,13,-110,2011,-4,-20,8,36,0,0,0,0,0,0,0,0,0,0,0,
0,0,17,-106,2026,-9,-18,9,57,0,0,0,0,0,0,0,0,0,0,0,
0,0,17,-103,2014,-7,-20,2,41,0,0,0,0,0,0,0,0,0,0,0,
0,0,20,-109,2018,-4,-21,6,48,0,0,0,0,0,0,0,0,0,0,0,
0,0,14,-106,2021,-6,-19,8,50,0,0,0,0,0,0,0,0,0,0,0,
0,0,18,-104,2018,-5,-20,6,51,0,0,0,0,0,0,0,0,0,0,0,
0,0,18,-104,2014,-8,-20,4,42,0,0,0,0,0,0,0,0,0,0,0,
0,0,14,-101,2023,-9,-15,4,54,0,0,0,0,0,0,0,0,0,0,0,
0,0,23,-103,2023,-3,-22,6,62,0,0,0,0,0,0,0,0,0,0,0,
0,0,21,-102,2022,-8,-18,4,57,0,0,0,0,0,0,0,0,0,0,0,
0,0,19,-98,2017,-9,-20,6,53,0,0,0,0,0,0,0,0,0,0,0,
0,0,20,-105,2014,-7,-18,1,43,0,0,0,0,0,0,0,0,0,0,0,
0,0,15,-102,2011,-5,-16,5,46,0,0,0,0,0,0,0,0,0,0,0,
0,0,20,-104,2023,-5,-18,3,57,0,0,0,0,0,0,0,0,0,0,0,
0,0,24,-109,2014,-5,-18,8,52,0,0,0,0,0,0,0,0,0,0,0,
0,0,14,-104,2019,-13,-16,5,43,0,0,0,0,0,0,0,0,0,0,0,
0,0,22,-105,2014,-8,-18,8,51,0,0,0,0,0,0,0,0,0,0,0,
0,0,18,-108,2023,-4,-18,8,57,0,0,0,0,0,0,0,0,0,0,0,
0,0,18,-105,2018,-8,-16,4,49,0,0,0,0,0,0,0,0,0,0,0,
0,0,14,-105,2017,-6,-18,8,48,0,0,0,0,0,0,0,0,0,0,0,
0,0,16,-102,2008,-9,-17,6,40,0,0,0,0,0,0,0,0,0,0,0,
0,0,12,-112,2016,-5,-18,9,40,0,0,0,0,0,0,0,0,0,0,0,
0,0,14,-112,2016,-7,-18,8,39,0,0,0,0,0,0,0,0,0,0,0,
0,0,25,-101,2021,-5,-20,5,63,0,0,0,0,0,0,0,0,0,0,0,
0,0,19,-109,2017,-12,-17,8,44,0,0,0,0,0,0,0,0,0,0,0,
0,0,18,-108,2023,-7,-20,5,49,0,0,0,0,0,0,0,0,0,0,0,
0,0,15,-103,2010,-6,-17,5,42,0,0,0,0,0,0,0,0,0,0,0,
0,0,13,-100,2016,-8,-18,4,45,0,0,0,0,0,0,0,0,0,0,0,
0,0,20,-106,2022,-8,-16,6,56,0,0,0,0,0,0,0,0,0,0,0,
0,0,16,-105,2013,-5,-20,8,45,0,0,0,0,0,0,0,0,0,0,0,
0,0,16,-103,2015,-7,-18,8,49,0,0,0,0,0,0,0,0,0,0,0,
0,0,20,-108,2016,-7,-12,8,55,0,0,0,0,0,0,0,0,0,0,0,
0,0,16,-103,2016,-9,-18,8,48,0,0,0,0,0,0,0,0,0,0,0,
0,0,19,-105,2012,-5,-20,8,47,0,0,0,0,0,0,0,0,0,0,0,
0,0,22,-108,2020,-5,-17,3,53,0,0,0,0,0,0,0,0,0,0,0,
0,0,12,-99,2015,-7,-19,7,47,0,0,0,0,0,0,0,0,0,0,0,
0,0,16,-102,2016,-7,-16,5,50,0,0,0,0,0,0,0,0,0,0,0,
0,0,14,-106,2020,-7,-18,5,46,0,0,0,0,0,0,0,0,0,0,0,
0,0,13,-103,2017,-5,-20,5,45,0,0,0,0,0,0,0,0,0,0,0,
0,0,12,-102,2017,-7,-19,7,46,0,0,0,0,0,0,0,0,0,0,0,
0,0,23,-106,2012,-10,-17,6,46,0,0,0,0,0,0,0,0,0,0,0,
0,0,18,-103,2016,-7,-18,7,51,0,0,0,0,0,0,0,0,0,0,0,
0,0,25,-106,2022,-8,-19,4,56,0,0,0,0,0,0,0,0,0,0,0,
0,0,13,-105,2017,-6,-18,4,43,0,0,0,0,0,0,0,0,0,0,0,
0,0,17,-105,2017,-8,-16,7,50,0,0,0,0,0,0,0,0,0,0,0,
0,0,22,-106,2019,-7,-19,7,54,0,0,0,0,0,0,0,0,0,0,0,
0,0,18,-100,2021,-10,-18,6,55,0,0,0,0,0,0,0,0,0,0,0,
0,0,26,-108,2015,-9,-19,6,49,0,0,0,0,0,0,0,0,0,0,0,
0,0,21,-105,2021,-7,-18,10,60,0,0,0,0,0,0,0,0,0,0,0,
0,0,23,-96,2020,-2,-21,4,66,0,0,0,0,0,0,0,0,0,0,0,
0,0,15,-102,2024,-9,-20,7,53,0,0,0,0,0,0,0,0,0,0,0,
0,0,18,-109,2016,-10,-18,7,42,0,0,0,0,0,0,0,0,0,0,0,
0,0,19,-104,2019,-9,-19,5,49,0,0,0,0,0,0,0,0,0,0,0,
0,0,21,-110,2011,-7,-19,5,39,0,0,0,0,0,0,0,0,0,0,0,
0,0,14,-103,2021,-7,-19,3,47,0,0,0,0,0,0,0,0,0,0,0,
0,0,18,-97,2018,-10,-21,4,50,0,0,0,0,0,0,0,0,0,0,0,
0,0,24,-110,2020,-8,-19,5,50,0,0,0,0,0,0,0,0,0,0,0,
0,0,18,-99,2026,-8,-18,6,63,0,0,0,0,0,0,0,0,0,0,0,
0,0,19,-96,2017,-9,-19,5,55,0,0,0,0,0,0,0,0,0,0,0,
0,0,14,-107,2017,-8,-18,5,41,0,0,0,0,0,0,0,0,0,0,0,
0,0,17,-102,2021,-5,-20,3,52,0,0,0,0,0,0,0,0,0,0,0,
0,0,22,-109,2018,-9,-19,8,49,0,0,0,0,0,0,0,0,0,0,0,
0,0,21,-101,2018,-5,-17,7,61,0,0,0,0,0,0,0,0,0,0,0,
0,0,17,-113,2018,-9,-19,6,38,0,0,0,0,0,0,0,0,0,0,0,
0,0,14,-103,2018,-8,-19,6,46,0,0,0,0,0,0,0,0,0,0,0,
0,0,14,-110,2022,-10,-18,3,39,0,0,0,0,0,0,0,0,0,0,0,
0,0,13,-113,2018,-6,-18,8,40,0,0,0,0,0,0,0,0,0,0,0,
0,0,20,-99,2014,-7,-18,7,55,0,0,0,0,0,0,0,0,0,0,0,
0,0,17,-107,2017,-7,-17,7,48,0,0,0,0,0,0,0,0,0,0,0,
0,0,16,-104,2016,-6,-18,3,45,0,0,0,0,0,0,0,0,0,0,0,
0,0,14,-104,2022,-3,-20,8,55,0,0,0,0,0,0,0,0,0,0,0,
0,0,16,-105,2021,-9,-18,8,51,0,0,0,0,0,0,0,0,0,0,0,
0,0,18,-108,2024,-6,-18,5,53,0,0,0,0,0,0,0,0,0,0,0,
0,0,21,-103,2013,-12,-17,7,47,0,0,0,0,0,0,0,0,0,0,0,
0,0,11,-108,2015,-7,-20,7,36,0,0,0,0,0,0,0,0,0,0,0,
0,0,16,-112,2014,-5,-20,6,37,0,0,0,0,0,0,0,0,0,0,0,
0,0,19,-107,2012,-7,-16,10,49,0,0,0,0,0,0,0,0,0,0,0,
0,0,12,-117,2022,-8,-19,6,34,0,0,0,0,0,0,0,0,0,0,0,
0,0,21,-98,2020,-5,-18,8,66,0,0,0,0,0,0,0,0,0,0,0,
0,0,13,-104,2017,-9,-17,5,43,0,0,0,0,0,0,0,0,0,0,0,
0,0,22,-99,2007,-5,-18,2,47,0,0,0,0,0,0,0,0,0,0,0,
0,0,22,-99,2007,-5,-18,2,47,0,0,0,0,0,0,0,0,0,0,0,
0,0,22,-103,2023,-9,-16,6,61,0,0,0,0,0,0,0,0,0,0,0,
0,0,14,-103,2026,-6,-19,9,59,0,0,0,0,0,0,0,0,0,0,0,
0,0,18,-106,2021,-9,-20,7,49,0,0,0,0,0,0,0,0,0,0,0,
0,0,20,-107,2015,-9,-19,5,43,0,0,0,0,0,0,0,0,0,0,0,
0,0,7,-111,2024,-6,-18,6,40,0,0,0,0,0,0,0,0,0,0,0,
0,0,7,-111,2024,-6,-16,7,43,0,0,0,0,0,0,0,0,0,0,0,
0,0,13,-100,2014,-6,-17,7,49,0,0,0,0,0,0,0,0,0,0,0,
0,0,12,-107,2012,-7,-21,9,36,0,0,0,0,0,0,0,0,0,0,0,
0,0,17,-101,2018,-7,-16,5,54,0,0,0,0,0,0,0,0,0,0,0,
0,0,17,-101,2018,-5,-22,3,48,0,0,0,0,0,0,0,0,0,0,0,
0,0,18,-109,2022,-10,-16,8,51,0,0,0,0,0,0,0,0,0,0,0,
0,0,14,-101,2017,-10,-18,6,46,0,0,0,0,0,0,0,0,0,0,0,
0,0,21,-105,2015,-9,-15,7,52,0,0,0,0,0,0,0,0,0,0,0,
0,0,19,-105,2022,-9,-17,6,54,0,0,0,0,0,0,0,0,0,0,0,
0,0,17,-108,2011,-6,-18,9,43,0,0,0,0,0,0,0,0,0,0,0,
0,0,17,-107,2016,-8,-19,4,41,0,0,0,0,0,0,0,0,0,0,0,
0,0,17,-108,2019,-6,-18,6,48,0,0,0,0,0,0,0,0,0,0,0,
0,0,23,-100,2023,-9,-17,9,67,0,0,0,0,0,0,0,0,0,0,0,
0,0,16,-104,2008,-5,-16,7,44,0,0,0,0,0,0,0,0,0,0,0,
0,0,15,-104,2019,-9,-18,6,47,0,0,0,0,0,0,0,0,0,0,0,
0,0,19,-104,2022,-6,-18,6,57,0,0,0,0,0,0,0,0,0,0,0,
0,0,22,-106,2016,-8,-21,3,44,0,0,0,0,0,0,0,0,0,0,0,
0,0,15,-107,2015,-6,-15,5,45,0,0,0,0,0,0,0,0,0,0,0,
0,0,24,-104,2017,-9,-17,7,56,0,0,0,0,0,0,0,0,0,0,0,
0,0,20,-104,2021,-6,-22,5,52,0,0,0,0,0,0,0,0,0,0,0,
0,0,17,-105,2019,-10,-17,10,52,0,0,0,0,0,0,0,0,0,0,0,
0,0,24,-108,2021,-8,-19,3,51,0,0,0,0,0,0,0,0,0,0,0,
0,0,15,-101,2015,-9,-18,4,44,0,0,0,0,0,0,0,0,0,0,0,
0,0,15,-105,2017,-5,-20,8,48,0,0,0,0,0,0,0,0,0,0,0,
0,0,15,-109,2019,-11,-19,8,41,0,0,0,0,0,0,0,0,0,0,0,
0,0,17,-116,2012,-7,-17,7,34,0,0,0,0,0,0,0,0,0,0,0,
0,0,21,-108,2018,-11,-17,6,47,0,0,0,0,0,0,0,0,0,0,0,
0,0,16,-106,2018,-4,-15,4,51,0,0,0,0,0,0,0,0,0,0,0,
0,0,17,-102,2018,-8,-18,8,53,0,0,0,0,0,0,0,0,0,0,0,
0,0,21,-110,2017,-7,-18,8,49,0,0,0,0,0,0,0,0,0,0,0,
0,0,16,-110,2022,-8,-18,6,46,0,0,0,0,0,0,0,0,0,0,0,
0,0,12,-104,2019,-4,-17,8,52,0,0,0,0,0,0,0,0,0,0,0,
0,0,13,-107,2019,-12,-16,6,41,0,0,0,0,0,0,0,0,0,0,0,
0,0,14,-98,2021,-6,-18,8,59,0,0,0,0,0,0,0,0,0,0,0,
0,0,15,-104,2022,-8,-17,4,50,0,0,0,0,0,0,0,0,0,0,0,
0,0,16,-104,2011,-8,-16,5,42,0,0,0,0,0,0,0,0,0,0,0,
0,0,19,-99,2014,-8,-17,5,52,0,0,0,0,0,0,0,0,0,0,0,
0,0,18,-106,2019,-7,-19,8,51,0,0,0,0,0,0,0,0,0,0,0,
0,0,11,-108,2020,-8,-18,4,39,0,0,0,0,0,0,0,0,0,0,0,
0,0,14,-102,2021,-6,-22,5,48,0,0,0,0,0,0,0,0,0,0,0,
0,0,21,-111,2017,-11,-18,2,38,0,0,0,0,0,0,0,0,0,0,0,
0,0,16,-107,2008,-7,-19,7,36,0,0,0,0,0,0,0,0,0,0,0,
0,0,24,-107,2017,-8,-18,4,50,0,0,0,0,0,0,0,0,0,0,0,
0,0,22,-108,2019,-5,-15,5,56,0,0,0,0,0,0,0,0,0,0,0,
0,0,17,-103,2017,-10,-20,6,45,0,0,0,0,0,0,0,0,0,0,0,
0,0,11,-101,2018,-5,-18,4,47,0,0,0,0,0,0,0,0,0,0,0,
0,0,19,-101,2019,-7,-20,9,57,0,0,0,0,0,0,0,0,0,0,0,
0,0,22,-104,2012,-9,-17,7,49,0,0,0,0,0,0,0,0,0,0,0,
0,0,10,-101,2017,-8,-19,8,45,0,0,0,0,0,0,0,0,0,0,0,
0,0,23,-115,2012,-7,-17,5,39,0,0,0,0,0,0,0,0,0,0,0,
0,0,15,-104,2019,-7,-17,5,49,0,0,0,0,0,0,0,0,0,0,0,
0,0,9,-109,2010,-5,-20,6,29,0,0,0,0,0,0,0,0,0,0,0,
0,0,11,-110,2012,-9,-17,5,30,0,0,0,0,0,0,0,0,0,0,0,
0,0,17,-109,2012,-6,-18,5,39,0,0,0,0,0,0,0,0,0,0,0,
0,0,18,-108,2018,-6,-18,6,48,0,0,0,0,0,0,0,0,0,0,0,
0,0,21,-102,2018,-9,-23,8,51,0,0,0,0,0,0,0,0,0,0,0,
0,0,17,-104,2016,-6,-15,8,54,0,0,0,0,0,0,0,0,0,0,0,
0,0,17,-108,2015,-3,-16,9,52,0,0,0,0,0,0,0,0,0,0,0,
0,0,19,-103,2029,-10,-19,3,57,0,0,0,0,0,0,0,0,0,0,0,
0,0,13,-104,2020,-6,-17,8,52,0,0,0,0,0,0,0,0,0,0,0,
0,0,19,-105,2014,-7,-16,7,50,0,0,0,0,0,0,0,0,0,0,0,
0,0,17,-106,2018,-6,-19,8,50,0,0,0,0,0,0,0,0,0,0,0,
0,0,13,-103,2014,-8,-16,3,41,0,0,0,0,0,0,0,0,0,0,0,
0,0,20,-105,2021,-4,-18,7,59,0,0,0,0,0,0,0,0,0,0,0,
0,0,19,-103,2012,-8,-17,7,48,0,0,0,0,0,0,0,0,0,0,0,
0,0,22,-104,2021,-9,-18,7,57,0,0,0,0,0,0,0,0,0,0,0,
0,0,18,-107,2014,-8,-15,5,45,0,0,0,0,0,0,0,0,0,0,0,
0,0,16,-102,2019,-7,-17,6,53,0,0,0,0,0,0,0,0,0,0,0,
0,0,21,-110,2016,-4,-17,3,47,0,0,0,0,0,0,0,0,0,0,0,
0,0,13,-100,2014,-8,-16,8,49,0,0,0,0,0,0,0,0,0,0,0,
0,0,15,-101,2020,-8,-17,4,51,0,0,0,0,0,0,0,0,0,0,0,
0,0,19,-103,2021,-9,-19,12,59,0,0,0,0,0,0,0,0,0,0,0,
0,0,17,-107,2014,-8,-15,8,47,0,0,0,0,0,0,0,0,0,0,0,
0,0,22,-99,2018,-5,-17,8,65,0,0,0,0,0,0,0,0,0,0,0,
0,0,21,-108,2022,-8,-16,5,54,0,0,0,0,0,0,0,0,0,0,0,
0,0,17,-107,2015,-5,-20,5,43,0,0,0,0,0,0,0,0,0,0,0,
0,0,19,-104,2020,-3,-21,4,53,0,0,0,0,0,0,0,0,0,0,0,
0,0,20,-108,2022,-8,-17,4,51,0,0,0,0,0,0,0,0,0,0,0,
0,0,15,-99,2016,-9,-20,4,45,0,0,0,0,0,0,0,0,0,0,0,
0,0,13,-107,2018,-7,-18,8,45,0,0,0,0,0,0,0,0,0,0,0,
0,0,18,-101,2017,-8,-18,8,54,0,0,0,0,0,0,0,0,0,0,0,
0,0,18,-108,2021,-9,-16,6,50,0,0,0,0,0,0,0,0,0,0,0,
0,0,21,-108,2012,-7,-17,6,45,0,0,0,0,0,0,0,0,0,0,0,
0,0,13,-103,2016,-8,-16,4,44,0,0,0,0,0,0,0,0,0,0,0,
0,0,16,-103,2020,-7,-19,8,53,0,0,0,0,0,0,0,0,0,0,0,
0,0,14,-106,2016,-10,-21,6,37,0,0,0,0,0,0,0,0,0,0,0,
0,0,13,-97,2021,-10,-16,3,52,0,0,0,0,0,0,0,0,0,0,0,
0,0,16,-109,2018,-7,-17,5,44,0,0,0,0,0,0,0,0,0,0,0,
0,0,21,-113,2018,-6,-22,4,40,0,0,0,0,0,0,0,0,0,0,0,
0,0,16,-106,2017,-9,-18,6,44,0,0,0,0,0,0,0,0,0,0,0,
0,0,20,-111,2021,-8,-19,3,44,0,0,0,0,0,0,0,0,0,0,0,
0,0,16,-110,2014,-6,-17,8,43,0,0,0,0,0,0,0,0,0,0,0,
0,0,17,-106,2012,-6,-18,8,45,0,0,0,0,0,0,0,0,0,0,0,
0,0,17,-101,2019,-8,-14,8,59,0,0,0,0,0,0,0,0,0,0,0,
0,0,12,-105,2018,-5,-19,5,44,0,0,0,0,0,0,0,0,0,0,0,
0,0,20,-104,2018,-8,-18,5,51,0,0,0,0,0,0,0,0,0,0,0,
0,0,22,-104,2021,-5,-17,6,61,0,0,0,0,0,0,0,0,0,0,0,
0,0,13,-105,2012,-9,-18,5,36,0,0,0,0,0,0,0,0,0,0,0,
0,0,14,-110,2018,-7,-17,7,43,0,0,0,0,0,0,0,0,0,0,0,
0,0,16,-101,2016,-8,-17,6,50,0,0,0,0,0,0,0,0,0,0,0,
0,0,15,-109,2019,-8,-19,11,47,0,0,0,0,0,0,0,0,0,0,0,
0,0,24,-107,2026,-5,-20,5,61,0,0,0,0,0,0,0,0,0,0,0,
0,0,14,-99,2010,-6,-18,11,50,0,0,0,0,0,0,0,0,0,0,0,
0,0,14,-99,2010,-6,-18,11,50,0,0,0,0,0,0,0,0,0,0,0,
0,0,19,-101,2015,-8,-15,5,53,0,0,0,0,0,0,0,0,0,0,0,
0,0,24,-104,2017,-9,-20,5,51,0,0,0,0,0,0,0,0,0,0,0,
0,0,17,-109,2019,-6,-18,8,49,0,0,0,0,0,0,0,0,0,0,0,
0,0,19,-105,2014,-7,-19,6,46,0,0,0,0,0,0,0,0,0,0,0,
0,0,20,-104,2023,-7,-17,4,57,0,0,0,0,0,0,0,0,0,0,0,
0,0,20,-104,2023,-10,-19,8,56,0,0,0,0,0,0,0,0,0,0,0,
0,0,18,-105,2016,-5,-16,8,54,0,0,0,0,0,0,0,0,0,0,0,
0,0,18,-100,2018,-5,-15,4,58,0,0,0,0,0,0,0,0,0,0,0,
0,0,14,-106,2012,-5,-14,5,44,0,0,0,0,0,0,0,0,0,0,0,
0,0,14,-106,2012,-4,-19,7,42,0,0,0,0,0,0,0,0,0,0,0,
0,0,19,-105,2020,-7,-19,4,50,0,0,0,0,0,0,0,0,0,0,0,
0,0,16,-102,2016,-7,-21,6,46,0,0,0,0,0,0,0,0,0,0,0,
0,0,20,-104,2016,-6,-17,8,55,0,0,0,0,0,0,0,0,0,0,0,
0,0,20,-104,2017,-10,-18,6,49,0,0,0,0,0,0,0,0,0,0,0,
0,0,10,-108,2007,-8,-16,5,28,0,0,0,0,0,0,0,0,0,0,0,
0,0,16,-102,2017,-8,-21,2,42,0,0,0,0,0,0,0,0,0,0,0,
0,0,10,-103,2017,-9,-21,7,39,0,0,0,0,0,0,0,0,0,0,0,
0,0,19,-109,2014,-4,-16,6,48,0,0,0,0,0,0,0,0,0,0,0,
0,0,20,-105,2013,-7,-16,6,49,0,0,0,0,0,0,0,0,0,0,0,
0,0,24,-104,2022,-6,-16,5,63,0,0,0,0,0,0,0,0,0,0,0,
0,0,18,-108,2015,-9,-18,5,41,0,0,0,0,0,0,0,0,0,0,0,
0,0,24,-102,2017,-8,-18,8,59,0,0,0,0,0,0,0,0,0,0,0,
0,0,19,-109,2017,-9,-15,9,50,0,0,0,0,0,0,0,0,0,0,0,
0,0,19,-105,2013,-1,-17,8,55,0,0,0,0,0,0,0,0,0,0,0,
0,0,16,-103,2013,-5,-19,4,44,0,0,0,0,0,0,0,0,0,0,0,
0,0,20,-107,2023,-8,-16,5,55,0,0,0,0,0,0,0,0,0,0,0,
0,0,25,-102,2020,-10,-20,8,59,0,0,0,0,0,0,0,0,0,0,0,
0,0,14,-106,2021,-3,-17,7,54,0,0,0,0,0,0,0,0,0,0,0,
0,0,17,-106,2016,-10,-17,6,44,0,0,0,0,0,0,0,0,0,0,0,
0,0,13,-108,2015,-3,-19,5,41,0,0,0,0,0,0,0,0,0,0,0,
0,0,16,-102,2011,-3,-17,11,54,0,0,0,0,0,0,0,0,0,0,0,
0,0,17,-104,2017,-12,-20,7,43,0,0,0,0,0,0,0,0,0,0,0,
0,0,13,-110,2020,-4,-20,5,42,0,0,0,0,0,0,0,0,0,0,0,
0,0,11,-109,2022,-7,-17,8,46,0,0,0,0,0,0,0,0,0,0,0,
0,0,16,-111,2022,-9,-20,5,41,0,0,0,0,0,0,0,0,0,0,0,
0,0,23,-104,2018,-6,-18,6,57,0,0,0,0,0,0,0,0,0,0,0,
0,0,14,-98,2014,-9,-20,3,42,0,0,0,0,0,0,0,0,0,0,0,
0,0,13,-107,2012,-9,-19,6,34,0,0,0,0,0,0,0,0,0,0,0,
0,0,19,-98,2019,-6,-19,9,62,0,0,0,0,0,0,0,0,0,0,0,
0,0,21,-114,2018,-9,-19,5,40,0,0,0,0,0,0,0,0,0,0,0,
0,0,22,-114,2016,-6,-20,1,37,0,0,0,0,0,0,0,0,0,0,0,
0,0,11,-106,2020,-6,-19,5,43,0,0,0,0,0,0,0,0,0,0,0,
0,0,20,-105,2026,-10,-17,6,58,0,0,0,0,0,0,0,0,0,0,0,
0,0,19,-108,2021,-9,-19,7,49,0,0,0,0,0,0,0,0,0,0,0,
0,0,22,-100,2017,-9,-17,6,57,0,0,0,0,0,0,0,0,0,0,0,
0,0,13,-98,2022,-8,-19,6,54,0,0,0,0,0,0,0,0,0,0,0,
0,0,18,-106,2022,-5,-15,8,60,0,0,0,0,0,0,0,0,0,0,0,
0,0,17,-106,2016,-4,-18,8,51,0,0,0,0,0,0,0,0,0,0,0,
0,0,16,-108,2011,-6,-15,5,41,0,0,0,0,0,0,0,0,0,0,0,
0,0,20,-101,2014,-5,-18,7,55,0,0,0,0,0,0,0,0,0,0,0,
