1,2,3,4,5,6,7,8,9,10,11,12,13,14,15,16,17,18,19,20,
UserData_20,Frame ID£º0x01,FC_ACC_X,FC_ACC_Y,FC_ACC_Z,FC_GYR_X,FC_GYR_Y,FC_GYR_Z,FC_STA_Shock,Frame ID£º0x02,FC_MAG_X,FC_MAG_Y,FC_MAG_Z,FC_ALT_BAR,FC_SenserTMP,FC_STA_BAR,FC_STA_MAG,Frame ID£º0x03,FC_ATT_ROL,FC_ATT_PIT,
0,0,137,-96,-1885,-16,35,-6,132,0,0,0,0,0,0,0,0,0,0,0,
0,0,138,-96,-1883,-17,34,-6,133,0,0,0,0,0,0,0,0,0,0,0,
0,0,136,-95,-1880,-16,34,-4,138,0,0,0,0,0,0,0,0,0,0,0,
0,0,130,-101,-1889,-14,33,-6,116,0,0,0,0,0,0,0,0,0,0,0,
0,0,135,-102,-1883,-15,34,-4,128,0,0,0,0,0,0,0,0,0,0,0,
0,0,143,-98,-1890,-16,34,-6,130,0,0,0,0,0,0,0,0,0,0,0,
0,0,133,-99,-1893,-16,35,-4,119,0,0,0,0,0,0,0,0,0,0,0,
0,0,137,-96,-1893,-17,33,-3,124,0,0,0,0,0,0,0,0,0,0,0,
0,0,134,-98,-1890,-16,33,-6,120,0,0,0,0,0,0,0,0,0,0,0,
0,0,141,-93,-1896,-16,33,-6,126,0,0,0,0,0,0,0,0,0,0,0,
0,0,136,-96,-1898,-16,34,-6,117,0,0,0,0,0,0,0,0,0,0,0,
0,0,138,-94,-1884,-16,35,-6,136,0,0,0,0,0,0,0,0,0,0,0,
0,0,141,-104,-1889,-16,33,-4,124,0,0,0,0,0,0,0,0,0,0,0,
0,0,141,-103,-1889,-17,33,-4,124,0,0,0,0,0,0,0,0,0,0,0,
0,0,148,-99,-1881,-16,33,-4,144,0,0,0,0,0,0,0,0,0,0,0,
0,0,138,-91,-1886,-16,33,-4,137,0,0,0,0,0,0,0,0,0,0,0,
0,0,130,-97,-1879,-15,32,-4,130,0,0,0,0,0,0,0,0,0,0,0,
0,0,142,-101,-1886,-15,33,-4,132,0,0,0,0,0,0,0,0,0,0,0,
0,0,140,-95,-1890,-15,33,-4,132,0,0,0,0,0,0,0,0,0,0,0,
0,0,134,-93,-1888,-17,33,-4,128,0,0,0,0,0,0,0,0,0,0,0,
0,0,142,-95,-1901,-16,34,-4,123,0,0,0,0,0,0,0,0,0,0,0,
0,0,132,-97,-1893,-17,33,-4,117,0,0,0,0,0,0,0,0,0,0,0,
0,0,139,-107,-1887,-16,34,-4,122,0,0,0,0,0,0,0,0,0,0,0,
0,0,131,-105,-1883,-16,34,-4,120,0,0,0,0,0,0,0,0,0,0,0,
0,0,138,-100,-1888,-16,34,-6,125,0,0,0,0,0,0,0,0,0,0,0,
0,0,139,-97,-1890,-17,31,-6,123,0,0,0,0,0,0,0,0,0,0,0,
0,0,135,-94,-1891,-16,31,-6,122,0,0,0,0,0,0,0,0,0,0,0,
0,0,132,-100,-1886,-16,32,-4,121,0,0,0,0,0,0,0,0,0,0,0,
0,0,136,-96,-1887,-17,33,-4,128,0,0,0,0,0,0,0,0,0,0,0,
0,0,142,-101,-1895,-17,33,-4,121,0,0,0,0,0,0,0,0,0,0,0,
0,0,143,-96,-1876,-17,33,-6,144,0,0,0,0,0,0,0,0,0,0,0,
0,0,140,-95,-1893,-15,33,-4,129,0,0,0,0,0,0,0,0,0,0,0,
0,0,143,-95,-1887,-17,33,-4,136,0,0,0,0,0,0,0,0,0,0,0,
0,0,136,-94,-1889,-18,32,-4,126,0,0,0,0,0,0,0,0,0,0,0,
0,0,135,-101,-1881,-16,33,-6,127,0,0,0,0,0,0,0,0,0,0,0,
0,0,134,-96,-1888,-15,33,-4,127,0,0,0,0,0,0,0,0,0,0,0,
0,0,131,-96,-1883,-16,32,-6,125,0,0,0,0,0,0,0,0,0,0,0,
0,0,136,-97,-1883,-16,33,-6,130,0,0,0,0,0,0,0,0,0,0,0,
0,0,136,-98,-1891,-16,32,-4,122,0,0,0,0,0,0,0,0,0,0,0,
0,0,132,-99,-1887,-17,33,-4,121,0,0,0,0,0,0,0,0,0,0,0,
0,0,136,-100,-1888,-16,35,-6,124,0,0,0,0,0,0,0,0,0,0,0,
0,0,141,-97,-1874,-14,33,-6,146,0,0,0,0,0,0,0,0,0,0,0,
0,0,138,-103,-1883,-15,34,-6,128,0,0,0,0,0,0,0,0,0,0,0,
0,0,140,-100,-1874,-16,34,-4,143,0,0,0,0,0,0,0,0,0,0,0,
0,0,135,-100,-1881,-16,32,-6,127,0,0,0,0,0,0,0,0,0,0,0,
0,0,135,-98,-1883,-17,30,-4,126,0,0,0,0,0,0,0,0,0,0,0,
0,0,139,-94,-1892,-16,33,-4,129,0,0,0,0,0,0,0,0,0,0,0,
0,0,131,-91,-1897,-15,32,-4,119,0,0,0,0,0,0,0,0,0,0,0,
0,0,135,-96,-1889,-16,32,-6,123,0,0,0,0,0,0,0,0,0,0,0,
0,0,128,-96,-1892,-17,34,-4,116,0,0,0,0,0,0,0,0,0,0,0,
0,0,128,-98,-1899,-18,33,-7,102,0,0,0,0,0,0,0,0,0,0,0,
0,0,135,-89,-1894,-19,33,-4,125,0,0,0,0,0,0,0,0,0,0,0,
0,0,140,-91,-1890,-18,33,-6,131,0,0,0,0,0,0,0,0,0,0,0,
0,0,132,-96,-1882,-16,34,-4,131,0,0,0,0,0,0,0,0,0,0,0,
0,0,132,-94,-1885,-15,34,-4,131,0,0,0,0,0,0,0,0,0,0,0,
0,0,131,-101,-1890,-15,34,-4,118,0,0,0,0,0,0,0,0,0,0,0,
0,0,133,-104,-1880,-15,33,-4,126,0,0,0,0,0,0,0,0,0,0,0,
0,0,132,-102,-1887,-15,34,-4,121,0,0,0,0,0,0,0,0,0,0,0,
0,0,135,-96,-1890,-17,32,-4,123,0,0,0,0,0,0,0,0,0,0,0,
0,0,143,-94,-1897,-17,32,-3,127,0,0,0,0,0,0,0,0,0,0,0,
0,0,138,-95,-1894,-15,33,-4,126,0,0,0,0,0,0,0,0,0,0,0,
0,0,133,-98,-1892,-15,33,-4,120,0,0,0,0,0,0,0,0,0,0,0,
0,0,136,-102,-1895,-16,33,-6,113,0,0,0,0,0,0,0,0,0,0,0,
0,0,153,-97,-1881,-16,32,-6,148,0,0,0,0,0,0,0,0,0,0,0,
0,0,141,-99,-1886,-17,33,-6,129,0,0,0,0,0,0,0,0,0,0,0,
0,0,135,-97,-1888,-16,34,-6,125,0,0,0,0,0,0,0,0,0,0,0,
0,0,145,-93,-1877,-16,33,-4,151,0,0,0,0,0,0,0,0,0,0,0,
0,0,138,-96,-1891,-17,34,-6,125,0,0,0,0,0,0,0,0,0,0,0,
0,0,142,-98,-1894,-15,34,-4,128,0,0,0,0,0,0,0,0,0,0,0,
0,0,147,-99,-1903,-16,34,-4,122,0,0,0,0,0,0,0,0,0,0,0,
0,0,134,-93,-1895,-16,34,-4,123,0,0,0,0,0,0,0,0,0,0,0,
0,0,129,-93,-1892,-16,32,-6,117,0,0,0,0,0,0,0,0,0,0,0,
0,0,131,-94,-1895,-16,34,-6,117,0,0,0,0,0,0,0,0,0,0,0,
0,0,138,-88,-1883,-16,34,-6,142,0,0,0,0,0,0,0,0,0,0,0,
0,0,143,-99,-1889,-16,34,-4,132,0,0,0,0,0,0,0,0,0,0,0,
0,0,137,-104,-1893,-16,33,-6,114,0,0,0,0,0,0,0,0,0,0,0,
0,0,139,-94,-1897,-16,34,-6,123,0,0,0,0,0,0,0,0,0,0,0,
0,0,138,-92,-1893,-17,35,-4,130,0,0,0,0,0,0,0,0,0,0,0,
0,0,135,-100,-1888,-16,33,-4,123,0,0,0,0,0,0,0,0,0,0,0,
0,0,135,-102,-1883,-16,33,-6,124,0,0,0,0,0,0,0,0,0,0,0,
0,0,136,-101,-1883,-16,32,-7,124,0,0,0,0,0,0,0,0,0,0,0,
0,0,145,-94,-1897,-16,32,-4,129,0,0,0,0,0,0,0,0,0,0,0,
0,0,135,-100,-1893,-16,34,-6,117,0,0,0,0,0,0,0,0,0,0,0,
0,0,134,-103,-1879,-16,35,-4,130,0,0,0,0,0,0,0,0,0,0,0,
0,0,129,-98,-1876,-16,35,-4,133,0,0,0,0,0,0,0,0,0,0,0,
0,0,137,-97,-1889,-15,34,-4,129,0,0,0,0,0,0,0,0,0,0,0,
0,0,140,-104,-1879,-15,34,-4,135,0,0,0,0,0,0,0,0,0,0,0,
0,0,140,-94,-1888,-15,35,-4,137,0,0,0,0,0,0,0,0,0,0,0,
0,0,143,-98,-1885,-15,34,-6,136,0,0,0,0,0,0,0,0,0,0,0,
0,0,134,-100,-1903,-15,32,-6,105,0,0,0,0,0,0,0,0,0,0,0,
0,0,135,-90,-1888,-17,33,-4,132,0,0,0,0,0,0,0,0,0,0,0,
0,0,140,-83,-1884,-16,34,-4,150,0,0,0,0,0,0,0,0,0,0,0,
0,0,142,-85,-1899,-16,36,-4,137,0,0,0,0,0,0,0,0,0,0,0,
0,0,135,-96,-1894,-15,34,-4,123,0,0,0,0,0,0,0,0,0,0,0,
0,0,134,-95,-1884,-15,33,-4,132,0,0,0,0,0,0,0,0,0,0,0,
0,0,143,-93,-1888,-15,33,-6,137,0,0,0,0,0,0,0,0,0,0,0,
0,0,136,-91,-1890,-17,34,-6,129,0,0,0,0,0,0,0,0,0,0,0,
0,0,143,-98,-1895,-17,34,-4,126,0,0,0,0,0,0,0,0,0,0,0,
0,0,145,-96,-1898,-14,32,-4,128,0,0,0,0,0,0,0,0,0,0,0,
0,0,141,-92,-1890,-16,31,-6,131,0,0,0,0,0,0,0,0,0,0,0,
0,0,137,-90,-1884,-16,34,-6,138,0,0,0,0,0,0,0,0,0,0,0,
0,0,135,-93,-1902,-16,33,-7,113,0,0,0,0,0,0,0,0,0,0,0,
0,0,129,-89,-1897,-18,33,-6,115,0,0,0,0,0,0,0,0,0,0,0,
0,0,138,-90,-1902,-18,35,-7,119,0,0,0,0,0,0,0,0,0,0,0,
0,0,143,-92,-1892,-14,34,-6,136,0,0,0,0,0,0,0,0,0,0,0,
0,0,143,-87,-1885,-15,34,-4,149,0,0,0,0,0,0,0,0,0,0,0,
0,0,133,-92,-1889,-16,35,-6,128,0,0,0,0,0,0,0,0,0,0,0,
0,0,139,-96,-1880,-17,35,-6,138,0,0,0,0,0,0,0,0,0,0,0,
0,0,139,-99,-1874,-18,34,-4,141,0,0,0,0,0,0,0,0,0,0,0,
0,0,137,-96,-1886,-16,35,-4,133,0,0,0,0,0,0,0,0,0,0,0,
0,0,139,-100,-1884,-15,34,-6,131,0,0,0,0,0,0,0,0,0,0,0,
0,0,137,-102,-1899,-15,34,-6,112,0,0,0,0,0,0,0,0,0,0,0,
0,0,136,-99,-1896,-16,34,-6,116,0,0,0,0,0,0,0,0,0,0,0,
0,0,142,-93,-1898,-17,34,-4,127,0,0,0,0,0,0,0,0,0,0,0,
0,0,140,-91,-1896,-18,31,-4,125,0,0,0,0,0,0,0,0,0,0,0,
0,0,146,-101,-1889,-18,33,-6,128,0,0,0,0,0,0,0,0,0,0,0,
0,0,135,-96,-1882,-15,34,-4,135,0,0,0,0,0,0,0,0,0,0,0,
0,0,137,-98,-1899,-16,34,-4,117,0,0,0,0,0,0,0,0,0,0,0,
0,0,135,-92,-1894,-16,34,-4,126,0,0,0,0,0,0,0,0,0,0,0,
0,0,138,-89,-1887,-16,33,-4,138,0,0,0,0,0,0,0,0,0,0,0,
0,0,136,-95,-1889,-16,33,-6,126,0,0,0,0,0,0,0,0,0,0,0,
0,0,139,-96,-1896,-16,33,-4,123,0,0,0,0,0,0,0,0,0,0,0,
0,0,131,-96,-1896,-15,33,-4,116,0,0,0,0,0,0,0,0,0,0,0,
0,0,135,-97,-1887,-17,34,-4,127,0,0,0,0,0,0,0,0,0,0,0,
0,0,140,-95,-1891,-16,33,-4,130,0,0,0,0,0,0,0,0,0,0,0,
0,0,143,-93,-1891,-16,33,-4,135,0,0,0,0,0,0,0,0,0,0,0,
0,0,141,-95,-1883,-16,32,-4,138,0,0,0,0,0,0,0,0,0,0,0,
0,0,137,-101,-1890,-16,33,-4,122,0,0,0,0,0,0,0,0,0,0,0,
0,0,141,-98,-1885,-17,33,-6,131,0,0,0,0,0,0,0,0,0,0,0,
0,0,140,-94,-1886,-16,34,-4,137,0,0,0,0,0,0,0,0,0,0,0,
0,0,138,-91,-1891,-16,34,-4,133,0,0,0,0,0,0,0,0,0,0,0,
0,0,129,-93,-1891,-16,34,-4,122,0,0,0,0,0,0,0,0,0,0,0,
0,0,131,-88,-1886,-16,33,-4,133,0,0,0,0,0,0,0,0,0,0,0,
0,0,133,-95,-1880,-15,33,-6,133,0,0,0,0,0,0,0,0,0,0,0,
0,0,136,-103,-1891,-16,33,-4,118,0,0,0,0,0,0,0,0,0,0,0,
0,0,139,-96,-1890,-17,33,-4,128,0,0,0,0,0,0,0,0,0,0,0,
0,0,141,-102,-1889,-16,32,-6,123,0,0,0,0,0,0,0,0,0,0,0,
0,0,138,-99,-1882,-18,32,-6,128,0,0,0,0,0,0,0,0,0,0,0,
0,0,134,-95,-1882,-17,33,-6,130,0,0,0,0,0,0,0,0,0,0,0,
0,0,135,-94,-1876,-17,33,-6,138,0,0,0,0,0,0,0,0,0,0,0,
0,0,137,-91,-1886,-17,32,-6,132,0,0,0,0,0,0,0,0,0,0,0,
0,0,131,-99,-1881,-17,34,-6,125,0,0,0,0,0,0,0,0,0,0,0,
0,0,138,-99,-1878,-16,35,-4,139,0,0,0,0,0,0,0,0,0,0,0,
0,0,141,-93,-1887,-16,34,-4,138,0,0,0,0,0,0,0,0,0,0,0,
0,0,133,-94,-1883,-16,35,-6,132,0,0,0,0,0,0,0,0,0,0,0,
0,0,135,-98,-1882,-17,33,-4,130,0,0,0,0,0,0,0,0,0,0,0,
0,0,134,-97,-1882,-15,34,-6,131,0,0,0,0,0,0,0,0,0,0,0,
0,0,141,-95,-1875,-15,33,-7,145,0,0,0,0,0,0,0,0,0,0,0,
0,0,149,-102,-1886,-15,33,-4,138,0,0,0,0,0,0,0,0,0,0,0,
0,0,142,-99,-1882,-16,33,-4,137,0,0,0,0,0,0,0,0,0,0,0,
0,0,137,-93,-1888,-16,33,-4,132,0,0,0,0,0,0,0,0,0,0,0,
0,0,134,-93,-1889,-16,35,-4,130,0,0,0,0,0,0,0,0,0,0,0,
0,0,130,-94,-1888,-15,34,-6,124,0,0,0,0,0,0,0,0,0,0,0,
0,0,142,-99,-1891,-16,33,-4,128,0,0,0,0,0,0,0,0,0,0,0,
0,0,138,-97,-1885,-16,34,-4,133,0,0,0,0,0,0,0,0,0,0,0,
0,0,132,-93,-1881,-17,34,-4,134,0,0,0,0,0,0,0,0,0,0,0,
0,0,136,-93,-1905,-15,34,-4,116,0,0,0,0,0,0,0,0,0,0,0,
0,0,138,-94,-1890,-16,33,-4,130,0,0,0,0,0,0,0,0,0,0,0,
0,0,142,-98,-1884,-15,33,-4,137,0,0,0,0,0,0,0,0,0,0,0,
0,0,144,-102,-1887,-15,32,-4,131,0,0,0,0,0,0,0,0,0,0,0,
0,0,138,-106,-1896,-15,33,-4,113,0,0,0,0,0,0,0,0,0,0,0,
0,0,141,-93,-1895,-16,33,-4,129,0,0,0,0,0,0,0,0,0,0,0,
0,0,133,-97,-1894,-16,32,-4,117,0,0,0,0,0,0,0,0,0,0,0,
0,0,146,-92,-1885,-15,34,-4,147,0,0,0,0,0,0,0,0,0,0,0,
0,0,131,-94,-1892,-15,34,-4,123,0,0,0,0,0,0,0,0,0,0,0,
0,0,144,-86,-1886,-15,34,-6,148,0,0,0,0,0,0,0,0,0,0,0,
0,0,139,-99,-1887,-15,31,-4,128,0,0,0,0,0,0,0,0,0,0,0,
0,0,133,-96,-1896,-16,32,-4,116,0,0,0,0,0,0,0,0,0,0,0,
0,0,138,-90,-1889,-17,36,-6,135,0,0,0,0,0,0,0,0,0,0,0,
0,0,133,-91,-1891,-17,35,-6,126,0,0,0,0,0,0,0,0,0,0,0,
0,0,136,-93,-1890,-17,33,-4,128,0,0,0,0,0,0,0,0,0,0,0,
0,0,136,-100,-1880,-16,33,-4,132,0,0,0,0,0,0,0,0,0,0,0,
0,0,134,-100,-1877,-16,34,-6,132,0,0,0,0,0,0,0,0,0,0,0,
0,0,133,-99,-1893,-16,33,-6,115,0,0,0,0,0,0,0,0,0,0,0,
0,0,131,-97,-1900,-16,34,-6,109,0,0,0,0,0,0,0,0,0,0,0,
0,0,136,-95,-1877,-15,34,-6,140,0,0,0,0,0,0,0,0,0,0,0,
0,0,140,-93,-1885,-17,32,-6,134,0,0,0,0,0,0,0,0,0,0,0,
0,0,137,-101,-1887,-16,33,-6,123,0,0,0,0,0,0,0,0,0,0,0,
0,0,136,-94,-1903,-15,34,-4,117,0,0,0,0,0,0,0,0,0,0,0,
0,0,137,-92,-1892,-16,33,-6,127,0,0,0,0,0,0,0,0,0,0,0,
0,0,137,-93,-1880,-17,33,-4,139,0,0,0,0,0,0,0,0,0,0,0,
0,0,139,-98,-1887,-16,32,-4,129,0,0,0,0,0,0,0,0,0,0,0,
0,0,147,-92,-1882,-16,33,-4,149,0,0,0,0,0,0,0,0,0,0,0,
0,0,141,-91,-1889,-17,33,-4,136,0,0,0,0,0,0,0,0,0,0,0,
0,0,133,-96,-1880,-17,32,-4,131,0,0,0,0,0,0,0,0,0,0,0,
0,0,136,-99,-1889,-17,32,-4,122,0,0,0,0,0,0,0,0,0,0,0,
0,0,139,-96,-1891,-17,33,-4,127,0,0,0,0,0,0,0,0,0,0,0,
0,0,139,-95,-1892,-17,35,-4,129,0,0,0,0,0,0,0,0,0,0,0,
0,0,141,-96,-1893,-17,33,-4,127,0,0,0,0,0,0,0,0,0,0,0,
0,0,139,-95,-1897,-17,33,-6,120,0,0,0,0,0,0,0,0,0,0,0,
0,0,142,-101,-1898,-17,32,-4,117,0,0,0,0,0,0,0,0,0,0,0,
0,0,130,-94,-1894,-17,34,-6,116,0,0,0,0,0,0,0,0,0,0,0,
0,0,138,-93,-1893,-17,33,-6,125,0,0,0,0,0,0,0,0,0,0,0,
0,0,138,-94,-1886,-15,35,-6,135,0,0,0,0,0,0,0,0,0,0,0,
0,0,137,-90,-1889,-15,36,-4,138,0,0,0,0,0,0,0,0,0,0,0,
0,0,138,-94,-1894,-16,34,-4,127,0,0,0,0,0,0,0,0,0,0,0,
0,0,143,-95,-1882,-16,32,-4,141,0,0,0,0,0,0,0,0,0,0,0,
0,0,135,-92,-1889,-17,33,-6,127,0,0,0,0,0,0,0,0,0,0,0,
0,0,134,-97,-1893,-16,33,-4,120,0,0,0,0,0,0,0,0,0,0,0,
0,0,133,-95,-1892,-16,33,-4,122,0,0,0,0,0,0,0,0,0,0,0,
0,0,136,-98,-1886,-16,31,-4,126,0,0,0,0,0,0,0,0,0,0,0,
0,0,129,-96,-1895,-16,32,-4,113,0,0,0,0,0,0,0,0,0,0,0,
0,0,127,-100,-1890,-16,33,-4,113,0,0,0,0,0,0,0,0,0,0,0,
0,0,139,-96,-1901,-15,33,-4,119,0,0,0,0,0,0,0,0,0,0,0,
0,0,132,-97,-1894,-15,34,-7,116,0,0,0,0,0,0,0,0,0,0,0,
0,0,141,-95,-1884,-16,32,-4,137,0,0,0,0,0,0,0,0,0,0,0,
0,0,141,-100,-1894,-15,34,-4,125,0,0,0,0,0,0,0,0,0,0,0,
0,0,139,-98,-1897,-15,34,-6,120,0,0,0,0,0,0,0,0,0,0,0,
0,0,131,-94,-1890,-16,33,-4,123,0,0,0,0,0,0,0,0,0,0,0,
0,0,137,-96,-1888,-16,32,-4,128,0,0,0,0,0,0,0,0,0,0,0,
0,0,141,-96,-1872,-15,33,-4,150,0,0,0,0,0,0,0,0,0,0,0,
0,0,141,-93,-1888,-15,33,-6,135,0,0,0,0,0,0,0,0,0,0,0,
0,0,135,-97,-1894,-16,33,-4,120,0,0,0,0,0,0,0,0,0,0,0,
0,0,150,-97,-1879,-17,31,-4,147,0,0,0,0,0,0,0,0,0,0,0,
0,0,149,-101,-1895,-16,33,-6,127,0,0,0,0,0,0,0,0,0,0,0,
0,0,134,-98,-1891,-15,34,-4,123,0,0,0,0,0,0,0,0,0,0,0,
0,0,131,-98,-1878,-16,35,-4,133,0,0,0,0,0,0,0,0,0,0,0,
0,0,139,-98,-1889,-15,33,-4,129,0,0,0,0,0,0,0,0,0,0,0,
0,0,130,-103,-1887,-16,32,-4,115,0,0,0,0,0,0,0,0,0,0,0,
0,0,140,-101,-1885,-18,32,-4,127,0,0,0,0,0,0,0,0,0,0,0,
0,0,138,-99,-1883,-17,34,-4,132,0,0,0,0,0,0,0,0,0,0,0,
0,0,137,-95,-1891,-17,33,-4,126,0,0,0,0,0,0,0,0,0,0,0,
0,0,140,-99,-1886,-16,32,-6,128,0,0,0,0,0,0,0,0,0,0,0,
0,0,129,-97,-1886,-15,34,-4,124,0,0,0,0,0,0,0,0,0,0,0,
0,0,139,-99,-1882,-15,34,-4,136,0,0,0,0,0,0,0,0,0,0,0,
0,0,134,-95,-1880,-16,34,-6,134,0,0,0,0,0,0,0,0,0,0,0,
0,0,136,-94,-1885,-18,33,-4,131,0,0,0,0,0,0,0,0,0,0,0,
0,0,141,-88,-1889,-17,35,-4,141,0,0,0,0,0,0,0,0,0,0,0,
0,0,134,-92,-1882,-16,35,-6,136,0,0,0,0,0,0,0,0,0,0,0,
0,0,135,-94,-1890,-17,34,-4,127,0,0,0,0,0,0,0,0,0,0,0,
0,0,143,-94,-1890,-15,34,-4,137,0,0,0,0,0,0,0,0,0,0,0,
0,0,129,-94,-1887,-15,35,-4,127,0,0,0,0,0,0,0,0,0,0,0,
0,0,134,-92,-1889,-15,33,-6,128,0,0,0,0,0,0,0,0,0,0,0,
0,0,130,-95,-1888,-17,35,-6,122,0,0,0,0,0,0,0,0,0,0,0,
0,0,132,-89,-1889,-16,35,-6,130,0,0,0,0,0,0,0,0,0,0,0,
0,0,143,-91,-1896,-15,34,-6,132,0,0,0,0,0,0,0,0,0,0,0,
0,0,136,-97,-1884,-16,34,-4,132,0,0,0,0,0,0,0,0,0,0,0,
0,0,142,-102,-1899,-15,35,-6,118,0,0,0,0,0,0,0,0,0,0,0,
0,0,138,-96,-1901,-17,33,-6,114,0,0,0,0,0,0,0,0,0,0,0,
0,0,140,-105,-1881,-18,34,-4,129,0,0,0,0,0,0,0,0,0,0,0,
0,0,139,-104,-1884,-17,33,-4,126,0,0,0,0,0,0,0,0,0,0,0,
0,0,137,-97,-1887,-17,33,-4,128,0,0,0,0,0,0,0,0,0,0,0,
0,0,137,-100,-1896,-16,31,-4,115,0,0,0,0,0,0,0,0,0,0,0,
0,0,140,-96,-1891,-15,33,-4,130,0,0,0,0,0,0,0,0,0,0,0,
0,0,135,-92,-1896,-14,33,-6,123,0,0,0,0,0,0,0,0,0,0,0,
0,0,143,-89,-1900,-16,32,-6,127,0,0,0,0,0,0,0,0,0,0,0,
0,0,135,-88,-1893,-16,34,-4,131,0,0,0,0,0,0,0,0,0,0,0,
0,0,129,-94,-1882,-16,34,-6,128,0,0,0,0,0,0,0,0,0,0,0,
0,0,136,-99,-1881,-16,33,-6,130,0,0,0,0,0,0,0,0,0,0,0,
0,0,141,-98,-1879,-15,34,-6,140,0,0,0,0,0,0,0,0,0,0,0,
0,0,142,-95,-1895,-15,33,-4,129,0,0,0,0,0,0,0,0,0,0,0,
0,0,140,-107,-1886,-15,31,-6,120,0,0,0,0,0,0,0,0,0,0,0,
0,0,134,-96,-1887,-15,32,-4,127,0,0,0,0,0,0,0,0,0,0,0,
0,0,135,-89,-1887,-16,33,-4,135,0,0,0,0,0,0,0,0,0,0,0,
0,0,133,-99,-1883,-17,33,-4,126,0,0,0,0,0,0,0,0,0,0,0,
0,0,138,-94,-1884,-17,33,-4,135,0,0,0,0,0,0,0,0,0,0,0,
0,0,134,-89,-1882,-16,32,-4,138,0,0,0,0,0,0,0,0,0,0,0,
0,0,135,-94,-1882,-16,34,-7,133,0,0,0,0,0,0,0,0,0,0,0,
0,0,136,-98,-1885,-16,34,-7,127,0,0,0,0,0,0,0,0,0,0,0,
0,0,133,-97,-1896,-17,33,-4,115,0,0,0,0,0,0,0,0,0,0,0,
0,0,138,-96,-1890,-17,32,-4,126,0,0,0,0,0,0,0,0,0,0,0,
0,0,136,-100,-1882,-17,32,-6,126,0,0,0,0,0,0,0,0,0,0,0,
0,0,133,-92,-1892,-15,33,-7,123,0,0,0,0,0,0,0,0,0,0,0,
0,0,140,-93,-1891,-15,34,-6,132,0,0,0,0,0,0,0,0,0,0,0,
0,0,138,-103,-1890,-17,35,-6,120,0,0,0,0,0,0,0,0,0,0,0,
0,0,134,-100,-1890,-17,35,-4,121,0,0,0,0,0,0,0,0,0,0,0,
0,0,140,-106,-1895,-16,33,-4,115,0,0,0,0,0,0,0,0,0,0,0,
0,0,137,-96,-1882,-16,34,-6,134,0,0,0,0,0,0,0,0,0,0,0,
0,0,136,-95,-1886,-16,32,-6,128,0,0,0,0,0,0,0,0,0,0,0,
0,0,127,-99,-1893,-15,32,-4,111,0,0,0,0,0,0,0,0,0,0,0,
0,0,134,-92,-1872,-15,32,-4,146,0,0,0,0,0,0,0,0,0,0,0,
0,0,141,-93,-1877,-16,33,-6,145,0,0,0,0,0,0,0,0,0,0,0,
0,0,134,-92,-1893,-17,35,-4,126,0,0,0,0,0,0,0,0,0,0,0,
0,0,137,-100,-1896,-16,34,-6,116,0,0,0,0,0,0,0,0,0,0,0,
0,0,138,-94,-1893,-17,34,-6,125,0,0,0,0,0,0,0,0,0,0,0,
0,0,130,-98,-1892,-17,34,-6,114,0,0,0,0,0,0,0,0,0,0,0,
0,0,132,-100,-1894,-17,34,-6,112,0,0,0,0,0,0,0,0,0,0,0,
0,0,140,-99,-1893,-16,33,-7,121,0,0,0,0,0,0,0,0,0,0,0,
0,0,145,-93,-1900,-17,32,-6,124,0,0,0,0,0,0,0,0,0,0,0,
0,0,146,-91,-1894,-16,32,-4,136,0,0,0,0,0,0,0,0,0,0,0,
0,0,141,-98,-1893,-17,33,-6,123,0,0,0,0,0,0,0,0,0,0,0,
0,0,142,-100,-1883,-17,34,-6,133,0,0,0,0,0,0,0,0,0,0,0,
0,0,137,-98,-1887,-17,33,-4,127,0,0,0,0,0,0,0,0,0,0,0,
0,0,139,-90,-1887,-15,33,-4,139,0,0,0,0,0,0,0,0,0,0,0,
0,0,133,-95,-1897,-15,34,-4,119,0,0,0,0,0,0,0,0,0,0,0,
0,0,133,-100,-1886,-15,33,-4,124,0,0,0,0,0,0,0,0,0,0,0,
0,0,134,-93,-1890,-17,33,-6,124,0,0,0,0,0,0,0,0,0,0,0,
0,0,136,-97,-1885,-16,31,-4,128,0,0,0,0,0,0,0,0,0,0,0,
0,0,133,-92,-1895,-15,34,-4,124,0,0,0,0,0,0,0,0,0,0,0,
0,0,131,-102,-1892,-15,34,-4,115,0,0,0,0,0,0,0,0,0,0,0,
0,0,139,-99,-1891,-17,33,-4,124,0,0,0,0,0,0,0,0,0,0,0,
0,0,134,-99,-1886,-17,33,-6,122,0,0,0,0,0,0,0,0,0,0,0,
0,0,135,-94,-1884,-16,32,-6,130,0,0,0,0,0,0,0,0,0,0,0,
0,0,139,-93,-1898,-16,32,-7,120,0,0,0,0,0,0,0,0,0,0,0,
0,0,139,-92,-1885,-16,33,-6,136,0,0,0,0,0,0,0,0,0,0,0,
0,0,136,-94,-1889,-15,34,-6,129,0,0,0,0,0,0,0,0,0,0,0,
0,0,133,-95,-1889,-16,34,-4,126,0,0,0,0,0,0,0,0,0,0,0,
0,0,140,-93,-1894,-16,33,-4,129,0,0,0,0,0,0,0,0,0,0,0,
0,0,139,-99,-1898,-17,32,-6,114,0,0,0,0,0,0,0,0,0,0,0,
0,0,137,-90,-1889,-16,32,-7,130,0,0,0,0,0,0,0,0,0,0,0,
0,0,136,-89,-1889,-16,33,-4,134,0,0,0,0,0,0,0,0,0,0,0,
0,0,138,-96,-1897,-16,33,-4,121,0,0,0,0,0,0,0,0,0,0,0,
0,0,133,-99,-1901,-15,35,-4,112,0,0,0,0,0,0,0,0,0,0,0,
0,0,141,-103,-1895,-17,33,-6,116,0,0,0,0,0,0,0,0,0,0,0,
0,0,135,-92,-1891,-17,33,-6,125,0,0,0,0,0,0,0,0,0,0,0,
0,0,136,-95,-1893,-16,33,-6,122,0,0,0,0,0,0,0,0,0,0,0,
0,0,133,-90,-1892,-17,35,-6,126,0,0,0,0,0,0,0,0,0,0,0,
0,0,132,-96,-1887,-16,34,-4,126,0,0,0,0,0,0,0,0,0,0,0,
0,0,132,-94,-1889,-16,33,-4,125,0,0,0,0,0,0,0,0,0,0,0,
0,0,140,-94,-1906,-15,34,-4,118,0,0,0,0,0,0,0,0,0,0,0,
0,0,129,-95,-1896,-15,33,-6,113,0,0,0,0,0,0,0,0,0,0,0,
0,0,139,-100,-1887,-17,34,-4,128,0,0,0,0,0,0,0,0,0,0,0,
0,0,137,-99,-1889,-17,33,-7,121,0,0,0,0,0,0,0,0,0,0,0,
0,0,130,-97,-1885,-17,33,-4,123,0,0,0,0,0,0,0,0,0,0,0,
0,0,134,-97,-1889,-17,33,-4,123,0,0,0,0,0,0,0,0,0,0,0,
0,0,139,-100,-1876,-16,35,-4,141,0,0,0,0,0,0,0,0,0,0,0,
0,0,135,-98,-1893,-17,33,-4,119,0,0,0,0,0,0,0,0,0,0,0,
0,0,139,-89,-1887,-15,31,-6,136,0,0,0,0,0,0,0,0,0,0,0,
0,0,142,-97,-1890,-15,31,-4,130,0,0,0,0,0,0,0,0,0,0,0,
0,0,138,-98,-1898,-17,32,-4,116,0,0,0,0,0,0,0,0,0,0,0,
0,0,132,-89,-1891,-15,34,-4,130,0,0,0,0,0,0,0,0,0,0,0,
0,0,131,-97,-1894,-16,33,-4,116,0,0,0,0,0,0,0,0,0,0,0,
0,0,131,-96,-1888,-16,34,-4,124,0,0,0,0,0,0,0,0,0,0,0,
0,0,139,-97,-1876,-17,33,-4,141,0,0,0,0,0,0,0,0,0,0,0,
0,0,136,-103,-1878,-17,34,-4,131,0,0,0,0,0,0,0,0,0,0,0,
0,0,141,-102,-1885,-17,34,-4,130,0,0,0,0,0,0,0,0,0,0,0,
0,0,141,-102,-1892,-15,34,-3,126,0,0,0,0,0,0,0,0,0,0,0,
0,0,136,-95,-1882,-15,34,-4,137,0,0,0,0,0,0,0,0,0,0,0,
0,0,131,-93,-1891,-14,33,-4,125,0,0,0,0,0,0,0,0,0,0,0,
0,0,143,-97,-1886,-17,33,-4,135,0,0,0,0,0,0,0,0,0,0,0,
0,0,132,-99,-1879,-16,34,-6,129,0,0,0,0,0,0,0,0,0,0,0,
0,0,135,-97,-1888,-16,34,-4,127,0,0,0,0,0,0,0,0,0,0,0,
0,0,131,-99,-1888,-16,33,-4,120,0,0,0,0,0,0,0,0,0,0,0,
0,0,130,-98,-1890,-16,33,-4,118,0,0,0,0,0,0,0,0,0,0,0,
0,0,135,-96,-1893,-16,33,-6,120,0,0,0,0,0,0,0,0,0,0,0,
0,0,131,-94,-1887,-16,34,-4,127,0,0,0,0,0,0,0,0,0,0,0,
0,0,135,-95,-1893,-17,32,-6,119,0,0,0,0,0,0,0,0,0,0,0,
0,0,130,-99,-1882,-15,33,-6,124,0,0,0,0,0,0,0,0,0,0,0,
0,0,128,-100,-1894,-14,34,-6,111,0,0,0,0,0,0,0,0,0,0,0,
0,0,127,-92,-1899,-15,32,-4,112,0,0,0,0,0,0,0,0,0,0,0,
0,0,144,-104,-1892,-16,33,-4,124,0,0,0,0,0,0,0,0,0,0,0,
0,0,137,-92,-1888,-16,33,-4,133,0,0,0,0,0,0,0,0,0,0,0,
0,0,133,-97,-1898,-16,33,-4,114,0,0,0,0,0,0,0,0,0,0,0,
0,0,138,-96,-1893,-15,34,-4,127,0,0,0,0,0,0,0,0,0,0,0,
0,0,133,-97,-1891,-16,33,-4,121,0,0,0,0,0,0,0,0,0,0,0,
0,0,132,-93,-1892,-16,32,-6,120,0,0,0,0,0,0,0,0,0,0,0,
0,0,130,-97,-1884,-16,33,-6,123,0,0,0,0,0,0,0,0,0,0,0,
0,0,136,-99,-1884,-15,34,-4,131,0,0,0,0,0,0,0,0,0,0,0,
0,0,140,-96,-1894,-15,33,-6,125,0,0,0,0,0,0,0,0,0,0,0,
0,0,135,-90,-1896,-17,34,-7,122,0,0,0,0,0,0,0,0,0,0,0,
0,0,131,-104,-1899,-16,34,-4,105,0,0,0,0,0,0,0,0,0,0,0,
0,0,135,-104,-1891,-16,33,-4,116,0,0,0,0,0,0,0,0,0,0,0,
0,0,137,-100,-1896,-17,33,-3,117,0,0,0,0,0,0,0,0,0,0,0,
0,0,138,-102,-1891,-17,34,-4,121,0,0,0,0,0,0,0,0,0,0,0,
0,0,134,-103,-1891,-17,34,-4,116,0,0,0,0,0,0,0,0,0,0,0,
0,0,131,-98,-1897,-16,33,-4,112,0,0,0,0,0,0,0,0,0,0,0,
0,0,139,-98,-1885,-16,33,-4,132,0,0,0,0,0,0,0,0,0,0,0,
0,0,137,-97,-1895,-16,33,-6,119,0,0,0,0,0,0,0,0,0,0,0,
0,0,145,-101,-1886,-15,33,-6,133,0,0,0,0,0,0,0,0,0,0,0,
0,0,138,-99,-1898,-17,35,-4,118,0,0,0,0,0,0,0,0,0,0,0,
0,0,129,-96,-1881,-16,33,-4,128,0,0,0,0,0,0,0,0,0,0,0,
0,0,137,-97,-1892,-17,34,-4,124,0,0,0,0,0,0,0,0,0,0,0,
0,0,133,-95,-1889,-14,33,-4,127,0,0,0,0,0,0,0,0,0,0,0,
0,0,130,-99,-1886,-15,33,-6,120,0,0,0,0,0,0,0,0,0,0,0,
0,0,133,-95,-1886,-16,34,-6,127,0,0,0,0,0,0,0,0,0,0,0,
0,0,146,-96,-1894,-16,35,-4,134,0,0,0,0,0,0,0,0,0,0,0,
0,0,134,-92,-1884,-16,36,-4,137,0,0,0,0,0,0,0,0,0,0,0,
0,0,141,-99,-1887,-16,34,-4,132,0,0,0,0,0,0,0,0,0,0,0,
0,0,139,-100,-1886,-15,32,-4,129,0,0,0,0,0,0,0,0,0,0,0,
0,0,139,-100,-1893,-15,34,-6,122,0,0,0,0,0,0,0,0,0,0,0,
0,0,133,-96,-1882,-16,33,-6,129,0,0,0,0,0,0,0,0,0,0,0,
0,0,129,-96,-1883,-16,34,-6,125,0,0,0,0,0,0,0,0,0,0,0,
0,0,135,-98,-1892,-16,34,-6,120,0,0,0,0,0,0,0,0,0,0,0,
0,0,135,-97,-1895,-16,36,-4,122,0,0,0,0,0,0,0,0,0,0,0,
0,0,134,-94,-1886,-15,33,-6,129,0,0,0,0,0,0,0,0,0,0,0,
0,0,142,-97,-1890,-16,34,-6,130,0,0,0,0,0,0,0,0,0,0,0,
0,0,144,-103,-1891,-15,32,-4,126,0,0,0,0,0,0,0,0,0,0,0,
0,0,136,-99,-1872,-16,32,-4,140,0,0,0,0,0,0,0,0,0,0,0,
0,0,140,-98,-1883,-16,34,-4,136,0,0,0,0,0,0,0,0,0,0,0,
0,0,138,-101,-1885,-16,34,-4,129,0,0,0,0,0,0,0,0,0,0,0,
0,0,136,-95,-1887,-17,33,-4,129,0,0,0,0,0,0,0,0,0,0,0,
0,0,129,-98,-1893,-17,33,-4,113,0,0,0,0,0,0,0,0,0,0,0,
0,0,130,-100,-1892,-17,33,-4,113,0,0,0,0,0,0,0,0,0,0,0,
0,0,138,-98,-1898,-16,33,-4,118,0,0,0,0,0,0,0,0,0,0,0,
0,0,137,-101,-1901,-16,34,-4,112,0,0,0,0,0,0,0,0,0,0,0,
0,0,135,-95,-1900,-16,35,-4,118,0,0,0,0,0,0,0,0,0,0,0,
0,0,139,-107,-1895,-16,33,-4,113,0,0,0,0,0,0,0,0,0,0,0,
0,0,146,-103,-1883,-16,34,-4,137,0,0,0,0,0,0,0,0,0,0,0,
0,0,130,-96,-1890,-18,33,-4,118,0,0,0,0,0,0,0,0,0,0,0,
0,0,144,-99,-1891,-17,33,-6,127,0,0,0,0,0,0,0,0,0,0,0,
0,0,141,-99,-1883,-16,34,-7,133,0,0,0,0,0,0,0,0,0,0,0,
0,0,142,-93,-1884,-15,32,-4,141,0,0,0,0,0,0,0,0,0,0,0,
0,0,137,-93,-1879,-16,34,-4,142,0,0,0,0,0,0,0,0,0,0,0,
0,0,130,-102,-1890,-17,34,-4,114,0,0,0,0,0,0,0,0,0,0,0,
0,0,138,-100,-1897,-16,32,-4,116,0,0,0,0,0,0,0,0,0,0,0,
0,0,140,-97,-1899,-16,31,-4,118,0,0,0,0,0,0,0,0,0,0,0,
0,0,134,-105,-1898,-17,34,-4,107,0,0,0,0,0,0,0,0,0,0,0,
0,0,134,-101,-1897,-16,32,-4,111,0,0,0,0,0,0,0,0,0,0,0,
0,0,139,-99,-1898,-16,32,-6,115,0,0,0,0,0,0,0,0,0,0,0,
0,0,135,-93,-1884,-16,35,-4,136,0,0,0,0,0,0,0,0,0,0,0,
0,0,141,-97,-1878,-16,35,-6,142,0,0,0,0,0,0,0,0,0,0,0,
0,0,145,-99,-1882,-15,33,-6,139,0,0,0,0,0,0,0,0,0,0,0,
0,0,138,-96,-1878,-16,34,-6,139,0,0,0,0,0,0,0,0,0,0,0,
0,0,132,-92,-1877,-16,33,-7,136,0,0,0,0,0,0,0,0,0,0,0,
0,0,134,-96,-1884,-16,34,-4,131,0,0,0,0,0,0,0,0,0,0,0,
0,0,138,-102,-1906,-16,33,-6,104,0,0,0,0,0,0,0,0,0,0,0,
0,0,134,-99,-1894,-16,33,-4,117,0,0,0,0,0,0,0,0,0,0,0,
0,0,136,-95,-1890,-16,34,-6,126,0,0,0,0,0,0,0,0,0,0,0,
0,0,129,-92,-1896,-16,33,-4,117,0,0,0,0,0,0,0,0,0,0,0,
0,0,129,-94,-1885,-16,33,-4,126,0,0,0,0,0,0,0,0,0,0,0,
0,0,141,-95,-1889,-16,32,-7,129,0,0,0,0,0,0,0,0,0,0,0,
0,0,142,-97,-1888,-16,32,-8,128,0,0,0,0,0,0,0,0,0,0,0,
0,0,137,-100,-1891,-16,35,-6,122,0,0,0,0,0,0,0,0,0,0,0,
0,0,140,-96,-1888,-16,35,-6,132,0,0,0,0,0,0,0,0,0,0,0,
0,0,135,-98,-1881,-16,35,-4,134,0,0,0,0,0,0,0,0,0,0,0,
0,0,141,-94,-1881,-16,35,-4,144,0,0,0,0,0,0,0,0,0,0,0,
0,0,141,-100,-1884,-17,34,-4,133,0,0,0,0,0,0,0,0,0,0,0,
0,0,138,-101,-1890,-16,33,-6,121,0,0,0,0,0,0,0,0,0,0,0,
0,0,140,-97,-1889,-15,34,-6,130,0,0,0,0,0,0,0,0,0,0,0,
0,0,135,-95,-1892,-16,33,-4,124,0,0,0,0,0,0,0,0,0,0,0,
0,0,137,-91,-1879,-16,32,-6,140,0,0,0,0,0,0,0,0,0,0,0,
0,0,135,-91,-1885,-17,34,-4,135,0,0,0,0,0,0,0,0,0,0,0,
0,0,133,-98,-1887,-16,33,-4,124,0,0,0,0,0,0,0,0,0,0,0,
0,0,135,-102,-1885,-15,34,-4,126,0,0,0,0,0,0,0,0,0,0,0,
0,0,138,-96,-1892,-16,33,-6,124,0,0,0,0,0,0,0,0,0,0,0,
0,0,142,-90,-1879,-16,33,-4,149,0,0,0,0,0,0,0,0,0,0,0,
0,0,137,-95,-1885,-17,32,-4,131,0,0,0,0,0,0,0,0,0,0,0,
0,0,131,-92,-1889,-16,31,-4,124,0,0,0,0,0,0,0,0,0,0,0,
0,0,131,-97,-1893,-16,31,-4,115,0,0,0,0,0,0,0,0,0,0,0,
0,0,133,-92,-1892,-16,33,-6,123,0,0,0,0,0,0,0,0,0,0,0,
0,0,139,-94,-1893,-16,32,-4,127,0,0,0,0,0,0,0,0,0,0,0,
0,0,136,-89,-1889,-17,32,-7,129,0,0,0,0,0,0,0,0,0,0,0,
0,0,133,-94,-1897,-18,34,-6,115,0,0,0,0,0,0,0,0,0,0,0,
0,0,135,-99,-1896,-17,33,-8,111,0,0,0,0,0,0,0,0,0,0,0,
0,0,131,-103,-1889,-17,34,-4,115,0,0,0,0,0,0,0,0,0,0,0,
0,0,134,-89,-1888,-16,34,-4,134,0,0,0,0,0,0,0,0,0,0,0,
0,0,134,-89,-1892,-15,34,-6,129,0,0,0,0,0,0,0,0,0,0,0,
0,0,126,-100,-1888,-15,35,-6,115,0,0,0,0,0,0,0,0,0,0,0,
0,0,134,-93,-1891,-15,34,-7,125,0,0,0,0,0,0,0,0,0,0,0,
0,0,140,-103,-1897,-16,33,-6,114,0,0,0,0,0,0,0,0,0,0,0,
0,0,135,-98,-1901,-16,33,-6,110,0,0,0,0,0,0,0,0,0,0,0,
0,0,136,-92,-1896,-15,33,-4,125,0,0,0,0,0,0,0,0,0,0,0,
0,0,136,-97,-1907,-16,34,-4,109,0,0,0,0,0,0,0,0,0,0,0,
0,0,136,-106,-1895,-16,33,-4,111,0,0,0,0,0,0,0,0,0,0,0,
0,0,137,-97,-1893,-16,33,-4,123,0,0,0,0,0,0,0,0,0,0,0,
0,0,139,-93,-1885,-16,35,-4,139,0,0,0,0,0,0,0,0,0,0,0,
0,0,138,-98,-1896,-16,36,-4,123,0,0,0,0,0,0,0,0,0,0,0,
0,0,133,-98,-1892,-16,34,-6,118,0,0,0,0,0,0,0,0,0,0,0,
0,0,128,-92,-1884,-16,32,-6,125,0,0,0,0,0,0,0,0,0,0,0,
0,0,137,-101,-1887,-17,33,-4,124,0,0,0,0,0,0,0,0,0,0,0,
0,0,132,-95,-1902,-18,34,-6,108,0,0,0,0,0,0,0,0,0,0,0,
0,0,132,-98,-1889,-18,33,-4,119,0,0,0,0,0,0,0,0,0,0,0,
0,0,134,-96,-1891,-16,33,-4,123,0,0,0,0,0,0,0,0,0,0,0,
0,0,133,-94,-1888,-16,34,-6,126,0,0,0,0,0,0,0,0,0,0,0,
0,0,137,-99,-1889,-17,33,-6,122,0,0,0,0,0,0,0,0,0,0,0,
0,0,137,-98,-1886,-15,32,-4,129,0,0,0,0,0,0,0,0,0,0,0,
0,0,137,-94,-1883,-16,34,-4,137,0,0,0,0,0,0,0,0,0,0,0,
0,0,139,-106,-1881,-15,34,-4,130,0,0,0,0,0,0,0,0,0,0,0,
0,0,132,-98,-1895,-16,32,-4,114,0,0,0,0,0,0,0,0,0,0,0,
0,0,134,-98,-1894,-17,34,-6,116,0,0,0,0,0,0,0,0,0,0,0,
0,0,135,-95,-1883,-17,33,-6,130,0,0,0,0,0,0,0,0,0,0,0,
0,0,132,-100,-1888,-16,33,-6,118,0,0,0,0,0,0,0,0,0,0,0,
0,0,136,-100,-1885,-16,32,-4,126,0,0,0,0,0,0,0,0,0,0,0,
0,0,143,-93,-1886,-16,35,-7,139,0,0,0,0,0,0,0,0,0,0,0,
0,0,134,-107,-1879,-16,34,-6,123,0,0,0,0,0,0,0,0,0,0,0,
0,0,132,-98,-1881,-16,32,-4,128,0,0,0,0,0,0,0,0,0,0,0,
0,0,137,-99,-1893,-16,32,-6,118,0,0,0,0,0,0,0,0,0,0,0,
0,0,136,-101,-1889,-15,34,-7,121,0,0,0,0,0,0,0,0,0,0,0,
0,0,133,-97,-1885,-15,34,-6,127,0,0,0,0,0,0,0,0,0,0,0,
0,0,135,-96,-1887,-16,34,-6,127,0,0,0,0,0,0,0,0,0,0,0,
0,0,132,-96,-1900,-17,31,-4,109,0,0,0,0,0,0,0,0,0,0,0,
0,0,137,-95,-1896,-18,33,-4,120,0,0,0,0,0,0,0,0,0,0,0,
0,0,131,-99,-1891,-17,32,-4,115,0,0,0,0,0,0,0,0,0,0,0,
0,0,137,-102,-1892,-16,34,-3,121,0,0,0,0,0,0,0,0,0,0,0,
0,0,138,-104,-1895,-17,33,-4,114,0,0,0,0,0,0,0,0,0,0,0,
0,0,140,-94,-1892,-18,33,-6,126,0,0,0,0,0,0,0,0,0,0,0,
0,0,140,-97,-1888,-18,33,-6,127,0,0,0,0,0,0,0,0,0,0,0,
0,0,133,-98,-1887,-16,34,-4,125,0,0,0,0,0,0,0,0,0,0,0,
0,0,138,-98,-1892,-16,33,-6,122,0,0,0,0,0,0,0,0,0,0,0,
0,0,142,-98,-1895,-16,33,-4,125,0,0,0,0,0,0,0,0,0,0,0,
0,0,136,-102,-1894,-15,35,-4,119,0,0,0,0,0,0,0,0,0,0,0,
0,0,139,-88,-1900,-17,33,-4,126,0,0,0,0,0,0,0,0,0,0,0,
0,0,132,-91,-1895,-15,32,-4,122,0,0,0,0,0,0,0,0,0,0,0,
0,0,129,-92,-1890,-16,32,-4,122,0,0,0,0,0,0,0,0,0,0,0,
0,0,138,-94,-1901,-17,33,-6,116,0,0,0,0,0,0,0,0,0,0,0,
0,0,138,-99,-1887,-16,33,-6,126,0,0,0,0,0,0,0,0,0,0,0,
0,0,135,-104,-1891,-15,33,-4,117,0,0,0,0,0,0,0,0,0,0,0,
0,0,132,-100,-1879,-15,32,-4,129,0,0,0,0,0,0,0,0,0,0,0,
0,0,140,-101,-1891,-16,34,-4,125,0,0,0,0,0,0,0,0,0,0,0,
0,0,138,-100,-1889,-15,32,-4,125,0,0,0,0,0,0,0,0,0,0,0,
0,0,146,-97,-1894,-16,32,-3,131,0,0,0,0,0,0,0,0,0,0,0,
0,0,143,-95,-1900,-17,33,-4,123,0,0,0,0,0,0,0,0,0,0,0,
0,0,135,-86,-1889,-16,32,-4,135,0,0,0,0,0,0,0,0,0,0,0,
0,0,138,-91,-1892,-15,34,-4,133,0,0,0,0,0,0,0,0,0,0,0,
0,0,136,-103,-1895,-16,33,-4,114,0,0,0,0,0,0,0,0,0,0,0,
0,0,137,-102,-1885,-17,34,-4,126,0,0,0,0,0,0,0,0,0,0,0,
0,0,135,-105,-1883,-15,34,-4,125,0,0,0,0,0,0,0,0,0,0,0,
0,0,122,-100,-1882,-16,33,-6,114,0,0,0,0,0,0,0,0,0,0,0,
0,0,141,-94,-1889,-16,33,-6,132,0,0,0,0,0,0,0,0,0,0,0,
0,0,141,-97,-1909,-16,32,-6,108,0,0,0,0,0,0,0,0,0,0,0,
0,0,134,-99,-1903,-15,33,-6,107,0,0,0,0,0,0,0,0,0,0,0,
0,0,137,-99,-1886,-17,33,-4,127,0,0,0,0,0,0,0,0,0,0,0,
0,0,136,-98,-1887,-17,34,-4,127,0,0,0,0,0,0,0,0,0,0,0,
0,0,138,-94,-1882,-17,34,-6,136,0,0,0,0,0,0,0,0,0,0,0,
0,0,137,-97,-1878,-16,34,-4,139,0,0,0,0,0,0,0,0,0,0,0,
0,0,135,-93,-1897,-16,33,-6,119,0,0,0,0,0,0,0,0,0,0,0,
0,0,139,-95,-1901,-17,34,-6,117,0,0,0,0,0,0,0,0,0,0,0,
0,0,136,-94,-1886,-17,33,-4,131,0,0,0,0,0,0,0,0,0,0,0,
0,0,134,-97,-1888,-16,33,-7,122,0,0,0,0,0,0,0,0,0,0,0,
0,0,132,-93,-1895,-16,33,-4,120,0,0,0,0,0,0,0,0,0,0,0,
0,0,136,-97,-1902,-17,32,-4,111,0,0,0,0,0,0,0,0,0,0,0,
0,0,134,-96,-1891,-16,33,-4,123,0,0,0,0,0,0,0,0,0,0,0,
0,0,126,-99,-1891,-16,33,-4,112,0,0,0,0,0,0,0,0,0,0,0,
0,0,137,-94,-1889,-15,33,-4,131,0,0,0,0,0,0,0,0,0,0,0,
0,0,128,-100,-1896,-17,31,-4,105,0,0,0,0,0,0,0,0,0,0,0,
0,0,136,-103,-1889,-16,33,-4,120,0,0,0,0,0,0,0,0,0,0,0,
0,0,137,-100,-1896,-16,34,-4,118,0,0,0,0,0,0,0,0,0,0,0,
0,0,141,-89,-1891,-16,34,-6,136,0,0,0,0,0,0,0,0,0,0,0,
0,0,136,-95,-1899,-17,33,-4,117,0,0,0,0,0,0,0,0,0,0,0,
0,0,138,-95,-1891,-16,32,-4,127,0,0,0,0,0,0,0,0,0,0,0,
0,0,134,-96,-1887,-16,35,-3,130,0,0,0,0,0,0,0,0,0,0,0,
0,0,138,-99,-1894,-17,35,-4,122,0,0,0,0,0,0,0,0,0,0,0,
0,0,141,-99,-1897,-16,34,-4,122,0,0,0,0,0,0,0,0,0,0,0,
0,0,144,-94,-1885,-16,33,-6,139,0,0,0,0,0,0,0,0,0,0,0,
0,0,136,-97,-1888,-16,35,-4,129,0,0,0,0,0,0,0,0,0,0,0,
0,0,143,-101,-1887,-16,33,-4,131,0,0,0,0,0,0,0,0,0,0,0,
0,0,131,-97,-1884,-16,31,-4,124,0,0,0,0,0,0,0,0,0,0,0,
0,0,132,-99,-1890,-17,32,-4,117,0,0,0,0,0,0,0,0,0,0,0,
0,0,138,-99,-1886,-15,34,-4,131,0,0,0,0,0,0,0,0,0,0,0,
0,0,136,-97,-1888,-15,33,-6,126,0,0,0,0,0,0,0,0,0,0,0,
0,0,135,-96,-1894,-16,35,-6,121,0,0,0,0,0,0,0,0,0,0,0,
0,0,133,-101,-1886,-16,34,-6,121,0,0,0,0,0,0,0,0,0,0,0,
0,0,134,-98,-1887,-17,34,-4,125,0,0,0,0,0,0,0,0,0,0,0,
0,0,131,-96,-1902,-17,34,-4,109,0,0,0,0,0,0,0,0,0,0,0,
0,0,137,-91,-1891,-17,34,-6,129,0,0,0,0,0,0,0,0,0,0,0,
0,0,144,-93,-1902,-16,33,-4,125,0,0,0,0,0,0,0,0,0,0,0,
0,0,136,-95,-1887,-17,33,-6,127,0,0,0,0,0,0,0,0,0,0,0,
0,0,142,-103,-1885,-16,30,-4,127,0,0,0,0,0,0,0,0,0,0,0,
0,0,137,-95,-1883,-16,31,-6,131,0,0,0,0,0,0,0,0,0,0,0,
0,0,137,-100,-1884,-16,33,-6,127,0,0,0,0,0,0,0,0,0,0,0,
0,0,143,-94,-1887,-16,33,-7,135,0,0,0,0,0,0,0,0,0,0,0,
0,0,144,-95,-1894,-16,33,-6,129,0,0,0,0,0,0,0,0,0,0,0,
0,0,138,-95,-1890,-16,33,-6,127,0,0,0,0,0,0,0,0,0,0,0,
0,0,138,-94,-1897,-16,34,-6,122,0,0,0,0,0,0,0,0,0,0,0,
0,0,131,-91,-1893,-16,34,-4,124,0,0,0,0,0,0,0,0,0,0,0,
0,0,140,-91,-1888,-16,35,-4,139,0,0,0,0,0,0,0,0,0,0,0,
0,0,138,-87,-1886,-16,33,-4,141,0,0,0,0,0,0,0,0,0,0,0,
0,0,133,-86,-1891,-16,34,-4,133,0,0,0,0,0,0,0,0,0,0,0,
0,0,133,-89,-1889,-16,33,-4,131,0,0,0,0,0,0,0,0,0,0,0,
0,0,137,-87,-1880,-16,33,-6,144,0,0,0,0,0,0,0,0,0,0,0,
0,0,141,-94,-1891,-16,34,-4,133,0,0,0,0,0,0,0,0,0,0,0,
0,0,133,-98,-1888,-16,33,-6,121,0,0,0,0,0,0,0,0,0,0,0,
0,0,136,-91,-1895,-16,33,-6,124,0,0,0,0,0,0,0,0,0,0,0,
0,0,141,-96,-1893,-17,34,-4,128,0,0,0,0,0,0,0,0,0,0,0,
0,0,141,-94,-1874,-16,34,-4,150,0,0,0,0,0,0,0,0,0,0,0,
0,0,135,-90,-1883,-17,34,-4,138,0,0,0,0,0,0,0,0,0,0,0,
0,0,134,-92,-1888,-16,33,-4,130,0,0,0,0,0,0,0,0,0,0,0,
0,0,136,-94,-1889,-16,32,-4,128,0,0,0,0,0,0,0,0,0,0,0,
0,0,132,-100,-1890,-16,31,-6,114,0,0,0,0,0,0,0,0,0,0,0,
0,0,130,-97,-1886,-16,31,-4,121,0,0,0,0,0,0,0,0,0,0,0,
0,0,138,-102,-1902,-16,32,-4,109,0,0,0,0,0,0,0,0,0,0,0,
0,0,141,-100,-1890,-15,33,-4,128,0,0,0,0,0,0,0,0,0,0,0,
0,0,133,-96,-1889,-14,32,-4,125,0,0,0,0,0,0,0,0,0,0,0,
0,0,134,-89,-1877,-15,33,-4,145,0,0,0,0,0,0,0,0,0,0,0,
0,0,126,-98,-1903,-17,33,-6,98,0,0,0,0,0,0,0,0,0,0,0,
0,0,139,-101,-1907,-16,31,-6,103,0,0,0,0,0,0,0,0,0,0,0,
0,0,131,-88,-1892,-17,33,-7,123,0,0,0,0,0,0,0,0,0,0,0,
0,0,132,-88,-1884,-17,33,-6,133,0,0,0,0,0,0,0,0,0,0,0,
0,0,137,-93,-1883,-16,35,-4,139,0,0,0,0,0,0,0,0,0,0,0,
0,0,137,-100,-1878,-15,35,-4,138,0,0,0,0,0,0,0,0,0,0,0,
0,0,134,-99,-1895,-17,34,-4,116,0,0,0,0,0,0,0,0,0,0,0,
0,0,135,-95,-1895,-16,34,-4,122,0,0,0,0,0,0,0,0,0,0,0,
0,0,138,-92,-1888,-18,33,-6,130,0,0,0,0,0,0,0,0,0,0,0,
0,0,133,-93,-1900,-16,31,-6,112,0,0,0,0,0,0,0,0,0,0,0,
0,0,136,-97,-1904,-16,33,-6,109,0,0,0,0,0,0,0,0,0,0,0,
0,0,134,-100,-1882,-16,35,-4,130,0,0,0,0,0,0,0,0,0,0,0,
0,0,140,-93,-1885,-15,33,-6,137,0,0,0,0,0,0,0,0,0,0,0,
0,0,131,-95,-1885,-15,33,-6,126,0,0,0,0,0,0,0,0,0,0,0,
0,0,140,-97,-1886,-16,33,-4,133,0,0,0,0,0,0,0,0,0,0,0,
0,0,137,-99,-1889,-17,35,-6,124,0,0,0,0,0,0,0,0,0,0,0,
0,0,137,-99,-1887,-16,34,-7,125,0,0,0,0,0,0,0,0,0,0,0,
0,0,134,-98,-1897,-16,33,-4,115,0,0,0,0,0,0,0,0,0,0,0,
0,0,134,-95,-1882,-16,33,-4,133,0,0,0,0,0,0,0,0,0,0,0,
0,0,138,-93,-1886,-16,34,-4,136,0,0,0,0,0,0,0,0,0,0,0,
0,0,138,-97,-1893,-16,34,-3,126,0,0,0,0,0,0,0,0,0,0,0,
0,0,133,-96,-1898,-16,34,-4,116,0,0,0,0,0,0,0,0,0,0,0,
0,0,138,-103,-1888,-17,32,-4,121,0,0,0,0,0,0,0,0,0,0,0,
0,0,136,-101,-1901,-17,33,-4,109,0,0,0,0,0,0,0,0,0,0,0,
0,0,136,-100,-1893,-16,35,-4,121,0,0,0,0,0,0,0,0,0,0,0,
0,0,133,-98,-1885,-15,36,-4,130,0,0,0,0,0,0,0,0,0,0,0,
0,0,141,-95,-1874,-15,35,-4,151,0,0,0,0,0,0,0,0,0,0,0,
0,0,138,-95,-1890,-15,33,-4,130,0,0,0,0,0,0,0,0,0,0,0,
0,0,140,-96,-1898,-16,33,-4,122,0,0,0,0,0,0,0,0,0,0,0,
0,0,141,-95,-1877,-17,33,-6,142,0,0,0,0,0,0,0,0,0,0,0,
0,0,143,-92,-1886,-16,33,-4,141,0,0,0,0,0,0,0,0,0,0,0,
0,0,136,-105,-1886,-15,33,-6,120,0,0,0,0,0,0,0,0,0,0,0,
0,0,137,-98,-1887,-16,33,-7,125,0,0,0,0,0,0,0,0,0,0,0,
0,0,139,-94,-1896,-16,33,-4,125,0,0,0,0,0,0,0,0,0,0,0,
0,0,133,-94,-1880,-16,33,-6,133,0,0,0,0,0,0,0,0,0,0,0,
0,0,134,-100,-1887,-16,32,-6,120,0,0,0,0,0,0,0,0,0,0,0,
0,0,135,-90,-1881,-16,33,-6,138,0,0,0,0,0,0,0,0,0,0,0,
0,0,137,-96,-1886,-17,33,-6,128,0,0,0,0,0,0,0,0,0,0,0,
0,0,129,-96,-1877,-16,33,-4,132,0,0,0,0,0,0,0,0,0,0,0,
0,0,138,-90,-1886,-16,32,-6,135,0,0,0,0,0,0,0,0,0,0,0,
0,0,138,-94,-1885,-16,34,-6,134,0,0,0,0,0,0,0,0,0,0,0,
0,0,135,-94,-1885,-16,33,-4,132,0,0,0,0,0,0,0,0,0,0,0,
0,0,136,-96,-1898,-17,33,-4,117,0,0,0,0,0,0,0,0,0,0,0,
0,0,136,-102,-1896,-17,34,-6,112,0,0,0,0,0,0,0,0,0,0,0,
0,0,143,-103,-1886,-16,32,-4,129,0,0,0,0,0,0,0,0,0,0,0,
0,0,133,-96,-1881,-15,32,-4,132,0,0,0,0,0,0,0,0,0,0,0,
0,0,134,-96,-1898,-15,33,-4,117,0,0,0,0,0,0,0,0,0,0,0,
0,0,127,-98,-1882,-15,34,-4,125,0,0,0,0,0,0,0,0,0,0,0,
0,0,138,-98,-1893,-16,32,-6,120,0,0,0,0,0,0,0,0,0,0,0,
0,0,137,-98,-1883,-15,33,-7,130,0,0,0,0,0,0,0,0,0,0,0,
0,0,137,-93,-1888,-16,34,-6,131,0,0,0,0,0,0,0,0,0,0,0,
0,0,137,-95,-1892,-17,33,-4,125,0,0,0,0,0,0,0,0,0,0,0,
0,0,136,-94,-1880,-16,32,-4,137,0,0,0,0,0,0,0,0,0,0,0,
0,0,136,-95,-1876,-15,32,-4,141,0,0,0,0,0,0,0,0,0,0,0,
0,0,141,-89,-1888,-16,33,-4,140,0,0,0,0,0,0,0,0,0,0,0,
0,0,130,-106,-1884,-16,32,-6,113,0,0,0,0,0,0,0,0,0,0,0,
0,0,138,-100,-1880,-16,32,-4,133,0,0,0,0,0,0,0,0,0,0,0,
0,0,150,-92,-1890,-16,33,-4,144,0,0,0,0,0,0,0,0,0,0,0,
0,0,144,-99,-1893,-15,34,-4,130,0,0,0,0,0,0,0,0,0,0,0,
0,0,140,-101,-1901,-15,34,-6,114,0,0,0,0,0,0,0,0,0,0,0,
0,0,135,-90,-1900,-16,33,-4,121,0,0,0,0,0,0,0,0,0,0,0,
0,0,137,-88,-1884,-16,35,-6,141,0,0,0,0,0,0,0,0,0,0,0,
0,0,139,-95,-1900,-15,33,-6,119,0,0,0,0,0,0,0,0,0,0,0,
0,0,131,-93,-1902,-16,34,-4,113,0,0,0,0,0,0,0,0,0,0,0,
0,0,137,-101,-1894,-16,33,-4,118,0,0,0,0,0,0,0,0,0,0,0,
0,0,130,-97,-1890,-16,32,-4,118,0,0,0,0,0,0,0,0,0,0,0,
0,0,141,-90,-1891,-16,33,-4,136,0,0,0,0,0,0,0,0,0,0,0,
0,0,138,-108,-1887,-16,33,-4,119,0,0,0,0,0,0,0,0,0,0,0,
0,0,139,-104,-1887,-16,32,-6,121,0,0,0,0,0,0,0,0,0,0,0,
0,0,132,-100,-1879,-15,33,-7,127,0,0,0,0,0,0,0,0,0,0,0,
0,0,137,-96,-1882,-16,35,-4,137,0,0,0,0,0,0,0,0,0,0,0,
0,0,135,-101,-1897,-16,33,-4,113,0,0,0,0,0,0,0,0,0,0,0,
0,0,132,-101,-1886,-16,33,-6,119,0,0,0,0,0,0,0,0,0,0,0,
0,0,126,-97,-1878,-16,33,-6,125,0,0,0,0,0,0,0,0,0,0,0,
0,0,131,-92,-1879,-16,32,-7,132,0,0,0,0,0,0,0,0,0,0,0,
0,0,133,-88,-1887,-16,34,-7,132,0,0,0,0,0,0,0,0,0,0,0,
0,0,134,-92,-1889,-16,35,-7,128,0,0,0,0,0,0,0,0,0,0,0,
0,0,139,-102,-1888,-16,34,-6,124,0,0,0,0,0,0,0,0,0,0,0,
0,0,134,-98,-1885,-15,33,-6,126,0,0,0,0,0,0,0,0,0,0,0,
0,0,137,-91,-1886,-14,32,-4,137,0,0,0,0,0,0,0,0,0,0,0,
0,0,136,-98,-1885,-14,33,-4,131,0,0,0,0,0,0,0,0,0,0,0,
0,0,138,-91,-1887,-15,34,-6,136,0,0,0,0,0,0,0,0,0,0,0,
0,0,135,-90,-1896,-16,34,-6,124,0,0,0,0,0,0,0,0,0,0,0,
0,0,137,-97,-1888,-15,33,-7,126,0,0,0,0,0,0,0,0,0,0,0,
0,0,138,-90,-1890,-16,33,-6,132,0,0,0,0,0,0,0,0,0,0,0,
0,0,138,-87,-1892,-18,33,-4,133,0,0,0,0,0,0,0,0,0,0,0,
0,0,133,-95,-1901,-16,33,-4,113,0,0,0,0,0,0,0,0,0,0,0,
0,0,140,-93,-1896,-16,32,-6,124,0,0,0,0,0,0,0,0,0,0,0,
0,0,143,-95,-1888,-16,32,-6,133,0,0,0,0,0,0,0,0,0,0,0,
0,0,144,-96,-1894,-16,35,-4,132,0,0,0,0,0,0,0,0,0,0,0,
0,0,135,-86,-1886,-17,33,-4,138,0,0,0,0,0,0,0,0,0,0,0,
0,0,140,-93,-1888,-16,32,-4,134,0,0,0,0,0,0,0,0,0,0,0,
0,0,132,-92,-1890,-15,32,-6,124,0,0,0,0,0,0,0,0,0,0,0,
0,0,139,-92,-1897,-16,33,-4,126,0,0,0,0,0,0,0,0,0,0,0,
0,0,134,-99,-1884,-15,31,-6,124,0,0,0,0,0,0,0,0,0,0,0,
0,0,135,-97,-1878,-14,33,-6,136,0,0,0,0,0,0,0,0,0,0,0,
0,0,144,-95,-1889,-15,34,-6,136,0,0,0,0,0,0,0,0,0,0,0,
0,0,140,-95,-1887,-16,34,-6,133,0,0,0,0,0,0,0,0,0,0,0,
0,0,137,-91,-1898,-15,34,-6,124,0,0,0,0,0,0,0,0,0,0,0,
0,0,137,-97,-1882,-15,31,-7,130,0,0,0,0,0,0,0,0,0,0,0,
0,0,137,-96,-1877,-16,33,-6,138,0,0,0,0,0,0,0,0,0,0,0,
0,0,135,-100,-1887,-16,34,-4,125,0,0,0,0,0,0,0,0,0,0,0,
0,0,132,-93,-1889,-16,34,-7,124,0,0,0,0,0,0,0,0,0,0,0,
0,0,140,-97,-1879,-16,34,-6,139,0,0,0,0,0,0,0,0,0,0,0,
0,0,140,-98,-1894,-15,33,-4,125,0,0,0,0,0,0,0,0,0,0,0,
0,0,136,-91,-1889,-15,33,-4,133,0,0,0,0,0,0,0,0,0,0,0,
0,0,133,-90,-1889,-16,34,-4,131,0,0,0,0,0,0,0,0,0,0,0,
0,0,136,-92,-1896,-16,33,-6,122,0,0,0,0,0,0,0,0,0,0,0,
0,0,136,-95,-1896,-17,33,-6,118,0,0,0,0,0,0,0,0,0,0,0,
0,0,136,-95,-1887,-16,32,-6,127,0,0,0,0,0,0,0,0,0,0,0,
0,0,138,-94,-1893,-15,32,-6,125,0,0,0,0,0,0,0,0,0,0,0,
0,0,132,-103,-1894,-17,32,-4,109,0,0,0,0,0,0,0,0,0,0,0,
0,0,129,-92,-1899,-16,33,-6,112,0,0,0,0,0,0,0,0,0,0,0,
0,0,127,-97,-1895,-16,34,-4,112,0,0,0,0,0,0,0,0,0,0,0,
0,0,130,-92,-1897,-16,33,-4,117,0,0,0,0,0,0,0,0,0,0,0,
0,0,139,-103,-1894,-16,33,-6,116,0,0,0,0,0,0,0,0,0,0,0,
0,0,133,-95,-1898,-15,34,-6,116,0,0,0,0,0,0,0,0,0,0,0,
0,0,138,-90,-1885,-15,34,-4,141,0,0,0,0,0,0,0,0,0,0,0,
0,0,140,-94,-1892,-15,33,-4,131,0,0,0,0,0,0,0,0,0,0,0,
0,0,135,-100,-1888,-15,33,-4,124,0,0,0,0,0,0,0,0,0,0,0,
0,0,133,-101,-1893,-15,32,-4,115,0,0,0,0,0,0,0,0,0,0,0,
0,0,131,-95,-1885,-17,32,-4,125,0,0,0,0,0,0,0,0,0,0,0,
0,0,137,-87,-1895,-15,32,-4,131,0,0,0,0,0,0,0,0,0,0,0,
0,0,132,-94,-1904,-16,32,-4,109,0,0,0,0,0,0,0,0,0,0,0,
0,0,134,-98,-1898,-16,33,-6,112,0,0,0,0,0,0,0,0,0,0,0,
0,0,138,-98,-1897,-17,32,-6,115,0,0,0,0,0,0,0,0,0,0,0,
0,0,138,-101,-1894,-17,33,-4,118,0,0,0,0,0,0,0,0,0,0,0,
0,0,141,-95,-1886,-17,34,-6,134,0,0,0,0,0,0,0,0,0,0,0,
0,0,138,-87,-1898,-16,34,-4,130,0,0,0,0,0,0,0,0,0,0,0,
0,0,138,-96,-1890,-17,33,-6,125,0,0,0,0,0,0,0,0,0,0,0,
0,0,132,-100,-1892,-16,34,-6,115,0,0,0,0,0,0,0,0,0,0,0,
0,0,135,-93,-1896,-15,34,-4,124,0,0,0,0,0,0,0,0,0,0,0,
0,0,141,-98,-1892,-15,34,-4,129,0,0,0,0,0,0,0,0,0,0,0,
0,0,139,-96,-1895,-15,33,-7,122,0,0,0,0,0,0,0,0,0,0,0,
0,0,136,-99,-1879,-15,33,-7,132,0,0,0,0,0,0,0,0,0,0,0,
0,0,141,-91,-1882,-17,33,-7,140,0,0,0,0,0,0,0,0,0,0,0,
0,0,133,-96,-1886,-16,34,-7,125,0,0,0,0,0,0,0,0,0,0,0,
0,0,133,-100,-1880,-16,33,-6,127,0,0,0,0,0,0,0,0,0,0,0,
0,0,132,-95,-1891,-16,33,-4,122,0,0,0,0,0,0,0,0,0,0,0,
0,0,138,-94,-1893,-15,35,-6,128,0,0,0,0,0,0,0,0,0,0,0,
0,0,135,-104,-1879,-15,34,-6,128,0,0,0,0,0,0,0,0,0,0,0,
0,0,135,-108,-1884,-15,33,-6,118,0,0,0,0,0,0,0,0,0,0,0,
0,0,140,-96,-1890,-16,34,-6,129,0,0,0,0,0,0,0,0,0,0,0,
0,0,139,-95,-1890,-16,33,-4,130,0,0,0,0,0,0,0,0,0,0,0,
0,0,132,-99,-1886,-17,32,-6,119,0,0,0,0,0,0,0,0,0,0,0,
0,0,137,-96,-1875,-16,33,-6,140,0,0,0,0,0,0,0,0,0,0,0,
0,0,140,-95,-1896,-16,33,-6,123,0,0,0,0,0,0,0,0,0,0,0,
0,0,139,-98,-1888,-16,33,-7,126,0,0,0,0,0,0,0,0,0,0,0,
0,0,134,-93,-1887,-16,34,-4,131,0,0,0,0,0,0,0,0,0,0,0,
0,0,132,-97,-1893,-17,33,-4,117,0,0,0,0,0,0,0,0,0,0,0,
0,0,137,-105,-1891,-17,33,-4,116,0,0,0,0,0,0,0,0,0,0,0,
0,0,138,-98,-1894,-17,34,-4,122,0,0,0,0,0,0,0,0,0,0,0,
0,0,135,-93,-1886,-16,36,-6,133,0,0,0,0,0,0,0,0,0,0,0,
0,0,137,-98,-1887,-15,35,-6,129,0,0,0,0,0,0,0,0,0,0,0,
0,0,134,-96,-1893,-16,33,-7,118,0,0,0,0,0,0,0,0,0,0,0,
0,0,131,-98,-1889,-16,33,-6,118,0,0,0,0,0,0,0,0,0,0,0,
0,0,134,-87,-1893,-17,32,-4,128,0,0,0,0,0,0,0,0,0,0,0,
0,0,146,-86,-1903,-16,34,-4,134,0,0,0,0,0,0,0,0,0,0,0,
0,0,140,-96,-1889,-15,35,-4,134,0,0,0,0,0,0,0,0,0,0,0,
0,0,137,-90,-1898,-16,34,-6,124,0,0,0,0,0,0,0,0,0,0,0,
0,0,141,-96,-1885,-16,34,-6,135,0,0,0,0,0,0,0,0,0,0,0,
0,0,138,-96,-1887,-16,33,-6,129,0,0,0,0,0,0,0,0,0,0,0,
0,0,137,-94,-1879,-15,32,-7,137,0,0,0,0,0,0,0,0,0,0,0,
0,0,137,-97,-1882,-17,33,-6,131,0,0,0,0,0,0,0,0,0,0,0,
0,0,132,-98,-1886,-16,34,-6,123,0,0,0,0,0,0,0,0,0,0,0,
0,0,137,-100,-1888,-15,33,-6,124,0,0,0,0,0,0,0,0,0,0,0,
0,0,144,-92,-1890,-17,34,-6,136,0,0,0,0,0,0,0,0,0,0,0,
0,0,134,-97,-1890,-15,35,-6,124,0,0,0,0,0,0,0,0,0,0,0,
0,0,136,-102,-1887,-15,34,-4,125,0,0,0,0,0,0,0,0,0,0,0,
0,0,142,-96,-1883,-16,35,-6,139,0,0,0,0,0,0,0,0,0,0,0,
0,0,141,-94,-1888,-16,34,-7,133,0,0,0,0,0,0,0,0,0,0,0,
0,0,135,-93,-1882,-15,33,-6,135,0,0,0,0,0,0,0,0,0,0,0,
0,0,138,-93,-1899,-15,33,-6,121,0,0,0,0,0,0,0,0,0,0,0,
0,0,136,-98,-1894,-16,31,-6,116,0,0,0,0,0,0,0,0,0,0,0,
0,0,141,-99,-1901,-16,33,-4,117,0,0,0,0,0,0,0,0,0,0,0,
0,0,146,-95,-1891,-17,34,-4,136,0,0,0,0,0,0,0,0,0,0,0,
0,0,133,-97,-1896,-15,33,-4,117,0,0,0,0,0,0,0,0,0,0,0,
0,0,141,-93,-1896,-16,34,-6,127,0,0,0,0,0,0,0,0,0,0,0,
0,0,143,-86,-1900,-17,33,-4,132,0,0,0,0,0,0,0,0,0,0,0,
0,0,141,-90,-1893,-17,33,-4,133,0,0,0,0,0,0,0,0,0,0,0,
0,0,138,-102,-1894,-17,34,-4,118,0,0,0,0,0,0,0,0,0,0,0,
0,0,139,-92,-1895,-16,33,-4,128,0,0,0,0,0,0,0,0,0,0,0,
0,0,138,-103,-1883,-17,33,-4,127,0,0,0,0,0,0,0,0,0,0,0,
0,0,132,-101,-1884,-15,32,-4,123,0,0,0,0,0,0,0,0,0,0,0,
0,0,127,-95,-1889,-17,32,-6,115,0,0,0,0,0,0,0,0,0,0,0,
0,0,138,-102,-1882,-16,32,-4,129,0,0,0,0,0,0,0,0,0,0,0,
0,0,141,-96,-1897,-16,35,-4,126,0,0,0,0,0,0,0,0,0,0,0,
0,0,137,-90,-1888,-15,34,-4,137,0,0,0,0,0,0,0,0,0,0,0,
0,0,137,-93,-1886,-16,33,-4,134,0,0,0,0,0,0,0,0,0,0,0,
0,0,134,-93,-1877,-16,34,-4,141,0,0,0,0,0,0,0,0,0,0,0,
0,0,123,-90,-1894,-15,34,-4,117,0,0,0,0,0,0,0,0,0,0,0,
0,0,142,-97,-1902,-16,34,-4,120,0,0,0,0,0,0,0,0,0,0,0,
0,0,147,-102,-1898,-17,35,-4,124,0,0,0,0,0,0,0,0,0,0,0,
0,0,135,-95,-1893,-17,31,-4,120,0,0,0,0,0,0,0,0,0,0,0,
0,0,128,-96,-1892,-15,33,-4,117,0,0,0,0,0,0,0,0,0,0,0,
0,0,133,-91,-1892,-16,33,-4,126,0,0,0,0,0,0,0,0,0,0,0,
0,0,135,-97,-1890,-16,33,-4,124,0,0,0,0,0,0,0,0,0,0,0,
0,0,142,-97,-1900,-15,31,-6,118,0,0,0,0,0,0,0,0,0,0,0,
0,0,147,-96,-1900,-17,33,-6,124,0,0,0,0,0,0,0,0,0,0,0,
0,0,140,-91,-1900,-17,33,-4,124,0,0,0,0,0,0,0,0,0,0,0,
0,0,131,-85,-1894,-15,35,-4,131,0,0,0,0,0,0,0,0,0,0,0,
0,0,135,-94,-1890,-16,32,-6,124,0,0,0,0,0,0,0,0,0,0,0,
0,0,133,-95,-1895,-15,32,-6,117,0,0,0,0,0,0,0,0,0,0,0,
0,0,132,-98,-1884,-16,34,-4,127,0,0,0,0,0,0,0,0,0,0,0,
0,0,139,-99,-1884,-17,34,-4,132,0,0,0,0,0,0,0,0,0,0,0,
0,0,135,-103,-1886,-17,35,-4,123,0,0,0,0,0,0,0,0,0,0,0,
0,0,142,-96,-1890,-15,33,-6,131,0,0,0,0,0,0,0,0,0,0,0,
0,0,137,-94,-1895,-16,33,-8,120,0,0,0,0,0,0,0,0,0,0,0,
0,0,144,-99,-1886,-16,34,-8,132,0,0,0,0,0,0,0,0,0,0,0,
0,0,137,-102,-1876,-17,34,-7,132,0,0,0,0,0,0,0,0,0,0,0,
0,0,130,-97,-1883,-15,33,-4,127,0,0,0,0,0,0,0,0,0,0,0,
0,0,137,-101,-1896,-15,32,-4,116,0,0,0,0,0,0,0,0,0,0,0,
0,0,132,-103,-1887,-16,32,-6,115,0,0,0,0,0,0,0,0,0,0,0,
0,0,130,-98,-1889,-17,33,-6,116,0,0,0,0,0,0,0,0,0,0,0,
0,0,130,-99,-1886,-16,32,-6,118,0,0,0,0,0,0,0,0,0,0,0,
0,0,137,-99,-1899,-15,33,-6,114,0,0,0,0,0,0,0,0,0,0,0,
0,0,138,-94,-1890,-15,32,-6,128,0,0,0,0,0,0,0,0,0,0,0,
0,0,134,-90,-1892,-15,33,-4,129,0,0,0,0,0,0,0,0,0,0,0,
0,0,134,-94,-1902,-15,32,-3,115,0,0,0,0,0,0,0,0,0,0,0,
0,0,141,-103,-1898,-15,32,-4,116,0,0,0,0,0,0,0,0,0,0,0,
0,0,141,-97,-1903,-17,33,-4,116,0,0,0,0,0,0,0,0,0,0,0,
0,0,138,-98,-1886,-18,33,-4,128,0,0,0,0,0,0,0,0,0,0,0,
0,0,140,-100,-1883,-16,32,-4,132,0,0,0,0,0,0,0,0,0,0,0,
0,0,136,-98,-1889,-16,33,-6,123,0,0,0,0,0,0,0,0,0,0,0,
0,0,138,-103,-1881,-16,34,-4,131,0,0,0,0,0,0,0,0,0,0,0,
0,0,139,-102,-1887,-16,33,-4,126,0,0,0,0,0,0,0,0,0,0,0,
0,0,135,-94,-1887,-15,33,-4,131,0,0,0,0,0,0,0,0,0,0,0,
0,0,135,-96,-1894,-14,35,-6,123,0,0,0,0,0,0,0,0,0,0,0,
0,0,134,-100,-1906,-16,35,-7,103,0,0,0,0,0,0,0,0,0,0,0,
0,0,141,-97,-1893,-17,35,-6,126,0,0,0,0,0,0,0,0,0,0,0,
0,0,138,-94,-1888,-17,34,-6,130,0,0,0,0,0,0,0,0,0,0,0,
0,0,141,-97,-1884,-16,32,-6,133,0,0,0,0,0,0,0,0,0,0,0,
0,0,142,-97,-1897,-17,32,-4,122,0,0,0,0,0,0,0,0,0,0,0,
0,0,146,-97,-1893,-16,32,-6,129,0,0,0,0,0,0,0,0,0,0,0,
0,0,141,-92,-1899,-16,34,-4,127,0,0,0,0,0,0,0,0,0,0,0,
0,0,141,-95,-1896,-17,32,-6,122,0,0,0,0,0,0,0,0,0,0,0,
0,0,142,-102,-1882,-15,32,-6,132,0,0,0,0,0,0,0,0,0,0,0,
0,0,133,-93,-1889,-17,34,-6,125,0,0,0,0,0,0,0,0,0,0,0,
0,0,133,-94,-1888,-17,33,-7,123,0,0,0,0,0,0,0,0,0,0,0,
0,0,129,-94,-1888,-15,32,-6,121,0,0,0,0,0,0,0,0,0,0,0,
0,0,137,-90,-1887,-17,32,-6,132,0,0,0,0,0,0,0,0,0,0,0,
0,0,140,-93,-1890,-16,31,-6,129,0,0,0,0,0,0,0,0,0,0,0,
0,0,134,-102,-1902,-15,32,-6,104,0,0,0,0,0,0,0,0,0,0,0,
0,0,135,-99,-1892,-15,32,-6,118,0,0,0,0,0,0,0,0,0,0,0,
0,0,132,-99,-1887,-16,33,-7,119,0,0,0,0,0,0,0,0,0,0,0,
0,0,140,-101,-1885,-17,34,-7,127,0,0,0,0,0,0,0,0,0,0,0,
0,0,141,-99,-1894,-16,33,-7,121,0,0,0,0,0,0,0,0,0,0,0,
0,0,142,-101,-1889,-15,35,-4,131,0,0,0,0,0,0,0,0,0,0,0,
0,0,142,-100,-1905,-16,33,-4,113,0,0,0,0,0,0,0,0,0,0,0,
0,0,139,-97,-1900,-16,31,-4,116,0,0,0,0,0,0,0,0,0,0,0,
0,0,135,-98,-1887,-16,32,-4,125,0,0,0,0,0,0,0,0,0,0,0,
0,0,135,-98,-1890,-16,33,-4,123,0,0,0,0,0,0,0,0,0,0,0,
0,0,139,-92,-1883,-16,32,-6,137,0,0,0,0,0,0,0,0,0,0,0,
0,0,136,-100,-1885,-15,33,-4,128,0,0,0,0,0,0,0,0,0,0,0,
0,0,135,-91,-1887,-16,33,-4,133,0,0,0,0,0,0,0,0,0,0,0,
0,0,137,-101,-1898,-17,35,-4,115,0,0,0,0,0,0,0,0,0,0,0,
0,0,135,-108,-1893,-17,35,-6,109,0,0,0,0,0,0,0,0,0,0,0,
0,0,134,-100,-1887,-16,34,-4,124,0,0,0,0,0,0,0,0,0,0,0,
0,0,132,-93,-1883,-15,34,-6,132,0,0,0,0,0,0,0,0,0,0,0,
0,0,136,-100,-1878,-15,34,-6,134,0,0,0,0,0,0,0,0,0,0,0,
0,0,136,-98,-1893,-15,33,-7,119,0,0,0,0,0,0,0,0,0,0,0,
0,0,130,-106,-1884,-15,33,-6,115,0,0,0,0,0,0,0,0,0,0,0,
0,0,140,-103,-1896,-16,33,-4,117,0,0,0,0,0,0,0,0,0,0,0,
0,0,136,-100,-1893,-16,33,-4,119,0,0,0,0,0,0,0,0,0,0,0,
0,0,142,-100,-1892,-16,34,-6,125,0,0,0,0,0,0,0,0,0,0,0,
0,0,138,-97,-1886,-16,35,-4,133,0,0,0,0,0,0,0,0,0,0,0,
0,0,136,-91,-1888,-17,34,-4,133,0,0,0,0,0,0,0,0,0,0,0,
0,0,136,-94,-1898,-15,33,-4,121,0,0,0,0,0,0,0,0,0,0,0,
0,0,145,-94,-1899,-16,32,-4,127,0,0,0,0,0,0,0,0,0,0,0,
0,0,140,-97,-1891,-17,33,-6,125,0,0,0,0,0,0,0,0,0,0,0,
0,0,143,-93,-1891,-17,33,-7,131,0,0,0,0,0,0,0,0,0,0,0,
0,0,133,-101,-1898,-16,33,-4,110,0,0,0,0,0,0,0,0,0,0,0,
0,0,131,-99,-1903,-17,33,-7,101,0,0,0,0,0,0,0,0,0,0,0,
0,0,138,-96,-1898,-16,32,-4,119,0,0,0,0,0,0,0,0,0,0,0,
0,0,138,-88,-1895,-16,33,-6,129,0,0,0,0,0,0,0,0,0,0,0,
0,0,139,-99,-1877,-15,34,-6,139,0,0,0,0,0,0,0,0,0,0,0,
0,0,139,-95,-1882,-17,35,-7,136,0,0,0,0,0,0,0,0,0,0,0,
0,0,138,-101,-1887,-17,33,-7,122,0,0,0,0,0,0,0,0,0,0,0,
0,0,138,-96,-1895,-16,35,-7,122,0,0,0,0,0,0,0,0,0,0,0,
0,0,137,-95,-1892,-16,34,-6,125,0,0,0,0,0,0,0,0,0,0,0,
0,0,143,-99,-1883,-16,35,-6,137,0,0,0,0,0,0,0,0,0,0,0,
0,0,136,-103,-1881,-15,34,-4,130,0,0,0,0,0,0,0,0,0,0,0,
0,0,143,-97,-1895,-15,34,-7,126,0,0,0,0,0,0,0,0,0,0,0,
0,0,134,-97,-1885,-15,33,-4,129,0,0,0,0,0,0,0,0,0,0,0,
0,0,134,-93,-1885,-17,33,-6,129,0,0,0,0,0,0,0,0,0,0,0,
0,0,132,-98,-1893,-17,33,-6,114,0,0,0,0,0,0,0,0,0,0,0,
0,0,132,-88,-1894,-15,33,-6,125,0,0,0,0,0,0,0,0,0,0,0,
0,0,129,-99,-1886,-15,33,-4,121,0,0,0,0,0,0,0,0,0,0,0,
0,0,136,-102,-1886,-15,32,-4,124,0,0,0,0,0,0,0,0,0,0,0,
0,0,139,-98,-1892,-16,33,-4,125,0,0,0,0,0,0,0,0,0,0,0,
0,0,137,-101,-1894,-16,31,-4,116,0,0,0,0,0,0,0,0,0,0,0,
0,0,139,-101,-1881,-15,32,-7,130,0,0,0,0,0,0,0,0,0,0,0,
0,0,139,-93,-1885,-15,32,-6,135,0,0,0,0,0,0,0,0,0,0,0,
0,0,134,-90,-1892,-15,34,-6,128,0,0,0,0,0,0,0,0,0,0,0,
0,0,139,-89,-1882,-16,35,-4,146,0,0,0,0,0,0,0,0,0,0,0,
0,0,126,-98,-1882,-16,33,-6,120,0,0,0,0,0,0,0,0,0,0,0,
0,0,131,-90,-1887,-17,32,-4,128,0,0,0,0,0,0,0,0,0,0,0,
0,0,141,-90,-1889,-18,33,-6,134,0,0,0,0,0,0,0,0,0,0,0,
0,0,144,-95,-1898,-16,34,-4,128,0,0,0,0,0,0,0,0,0,0,0,
0,0,138,-97,-1896,-16,36,-6,122,0,0,0,0,0,0,0,0,0,0,0,
0,0,138,-96,-1890,-17,35,-4,129,0,0,0,0,0,0,0,0,0,0,0,
0,0,133,-93,-1878,-17,32,-7,133,0,0,0,0,0,0,0,0,0,0,0,
0,0,131,-94,-1889,-16,33,-4,124,0,0,0,0,0,0,0,0,0,0,0,
0,0,148,-108,-1892,-17,33,-4,123,0,0,0,0,0,0,0,0,0,0,0,
0,0,144,-97,-1889,-17,33,-6,131,0,0,0,0,0,0,0,0,0,0,0,
0,0,137,-100,-1895,-16,32,-4,117,0,0,0,0,0,0,0,0,0,0,0,
0,0,136,-91,-1890,-16,33,-6,129,0,0,0,0,0,0,0,0,0,0,0,
0,0,136,-87,-1890,-16,34,-6,134,0,0,0,0,0,0,0,0,0,0,0,
0,0,139,-91,-1888,-15,32,-4,136,0,0,0,0,0,0,0,0,0,0,0,
0,0,133,-102,-1889,-17,33,-4,117,0,0,0,0,0,0,0,0,0,0,0,
0,0,131,-103,-1890,-17,33,-4,113,0,0,0,0,0,0,0,0,0,0,0,
0,0,138,-95,-1885,-17,33,-4,133,0,0,0,0,0,0,0,0,0,0,0,
0,0,142,-95,-1889,-16,32,-4,133,0,0,0,0,0,0,0,0,0,0,0,
0,0,128,-90,-1896,-16,33,-4,118,0,0,0,0,0,0,0,0,0,0,0,
0,0,134,-92,-1891,-16,34,-4,128,0,0,0,0,0,0,0,0,0,0,0,
0,0,138,-97,-1909,-16,34,-4,109,0,0,0,0,0,0,0,0,0,0,0,
0,0,124,-103,-1889,-16,34,-4,109,0,0,0,0,0,0,0,0,0,0,0,
0,0,137,-97,-1890,-17,32,-4,124,0,0,0,0,0,0,0,0,0,0,0,
0,0,144,-93,-1884,-16,33,-4,143,0,0,0,0,0,0,0,0,0,0,0,
0,0,132,-95,-1891,-17,33,-4,121,0,0,0,0,0,0,0,0,0,0,0,
0,0,132,-99,-1884,-17,34,-4,125,0,0,0,0,0,0,0,0,0,0,0,
0,0,133,-97,-1895,-17,34,-4,117,0,0,0,0,0,0,0,0,0,0,0,
0,0,137,-92,-1885,-16,33,-6,134,0,0,0,0,0,0,0,0,0,0,0,
0,0,139,-95,-1875,-17,32,-4,143,0,0,0,0,0,0,0,0,0,0,0,
0,0,144,-94,-1885,-16,32,-4,140,0,0,0,0,0,0,0,0,0,0,0,
0,0,140,-101,-1874,-15,33,-4,142,0,0,0,0,0,0,0,0,0,0,0,
0,0,145,-105,-1893,-15,32,-3,124,0,0,0,0,0,0,0,0,0,0,0,
0,0,138,-94,-1895,-17,32,-4,123,0,0,0,0,0,0,0,0,0,0,0,
0,0,142,-96,-1888,-17,32,-4,132,0,0,0,0,0,0,0,0,0,0,0,
0,0,135,-93,-1894,-17,34,-4,124,0,0,0,0,0,0,0,0,0,0,0,
0,0,140,-98,-1890,-14,34,-4,131,0,0,0,0,0,0,0,0,0,0,0,
0,0,137,-99,-1893,-15,34,-4,123,0,0,0,0,0,0,0,0,0,0,0,
0,0,139,-93,-1894,-17,35,-6,127,0,0,0,0,0,0,0,0,0,0,0,
0,0,139,-97,-1898,-17,34,-4,120,0,0,0,0,0,0,0,0,0,0,0,
0,0,130,-98,-1890,-15,34,-4,120,0,0,0,0,0,0,0,0,0,0,0,
0,0,135,-95,-1897,-16,33,-4,119,0,0,0,0,0,0,0,0,0,0,0,
0,0,135,-99,-1888,-16,32,-7,120,0,0,0,0,0,0,0,0,0,0,0,
0,0,139,-104,-1897,-17,34,-4,114,0,0,0,0,0,0,0,0,0,0,0,
0,0,140,-100,-1899,-16,33,-7,114,0,0,0,0,0,0,0,0,0,0,0,
0,0,136,-95,-1897,-16,35,-4,122,0,0,0,0,0,0,0,0,0,0,0,
0,0,133,-93,-1891,-15,34,-4,127,0,0,0,0,0,0,0,0,0,0,0,
0,0,135,-100,-1893,-16,33,-6,116,0,0,0,0,0,0,0,0,0,0,0,
0,0,144,-99,-1884,-17,33,-6,134,0,0,0,0,0,0,0,0,0,0,0,
0,0,142,-103,-1890,-16,33,-4,125,0,0,0,0,0,0,0,0,0,0,0,
0,0,137,-93,-1878,-16,33,-6,140,0,0,0,0,0,0,0,0,0,0,0,
0,0,135,-89,-1889,-16,33,-6,131,0,0,0,0,0,0,0,0,0,0,0,
0,0,138,-96,-1883,-16,33,-4,135,0,0,0,0,0,0,0,0,0,0,0,
0,0,133,-94,-1889,-17,32,-4,124,0,0,0,0,0,0,0,0,0,0,0,
0,0,135,-103,-1893,-15,32,-4,115,0,0,0,0,0,0,0,0,0,0,0,
0,0,138,-100,-1891,-15,32,-4,123,0,0,0,0,0,0,0,0,0,0,0,
0,0,146,-101,-1890,-15,33,-4,132,0,0,0,0,0,0,0,0,0,0,0,
0,0,136,-101,-1884,-15,33,-4,128,0,0,0,0,0,0,0,0,0,0,0,
0,0,137,-94,-1895,-16,33,-4,124,0,0,0,0,0,0,0,0,0,0,0,
0,0,134,-93,-1887,-16,34,-4,131,0,0,0,0,0,0,0,0,0,0,0,
0,0,137,-93,-1881,-16,35,-6,139,0,0,0,0,0,0,0,0,0,0,0,
0,0,132,-96,-1886,-16,34,-4,127,0,0,0,0,0,0,0,0,0,0,0,
0,0,130,-96,-1879,-15,35,-6,132,0,0,0,0,0,0,0,0,0,0,0,
0,0,138,-94,-1904,-16,34,-4,117,0,0,0,0,0,0,0,0,0,0,0,
0,0,130,-98,-1893,-16,33,-4,115,0,0,0,0,0,0,0,0,0,0,0,
0,0,133,-95,-1887,-18,34,-7,123,0,0,0,0,0,0,0,0,0,0,0,
0,0,141,-103,-1894,-17,33,-4,119,0,0,0,0,0,0,0,0,0,0,0,
0,0,138,-98,-1891,-15,34,-4,127,0,0,0,0,0,0,0,0,0,0,0,
0,0,136,-100,-1882,-16,34,-4,131,0,0,0,0,0,0,0,0,0,0,0,
0,0,140,-98,-1893,-18,34,-4,124,0,0,0,0,0,0,0,0,0,0,0,
0,0,134,-92,-1885,-17,32,-6,129,0,0,0,0,0,0,0,0,0,0,0,
0,0,136,-92,-1890,-17,33,-6,127,0,0,0,0,0,0,0,0,0,0,0,
0,0,139,-96,-1891,-16,32,-4,127,0,0,0,0,0,0,0,0,0,0,0,
0,0,134,-103,-1873,-14,33,-4,136,0,0,0,0,0,0,0,0,0,0,0,
0,0,128,-102,-1892,-16,33,-6,108,0,0,0,0,0,0,0,0,0,0,0,
0,0,133,-100,-1885,-17,33,-4,123,0,0,0,0,0,0,0,0,0,0,0,
0,0,138,-100,-1899,-16,34,-6,114,0,0,0,0,0,0,0,0,0,0,0,
0,0,141,-98,-1886,-17,33,-6,130,0,0,0,0,0,0,0,0,0,0,0,
0,0,143,-106,-1896,-16,33,-4,117,0,0,0,0,0,0,0,0,0,0,0,
0,0,139,-100,-1894,-16,34,-6,120,0,0,0,0,0,0,0,0,0,0,0,
0,0,140,-101,-1888,-16,34,-6,126,0,0,0,0,0,0,0,0,0,0,0,
0,0,136,-99,-1893,-17,33,-4,119,0,0,0,0,0,0,0,0,0,0,0,
0,0,141,-98,-1893,-15,34,-4,128,0,0,0,0,0,0,0,0,0,0,0,
0,0,135,-100,-1895,-15,32,-4,116,0,0,0,0,0,0,0,0,0,0,0,
0,0,136,-99,-1885,-15,33,-6,127,0,0,0,0,0,0,0,0,0,0,0,
0,0,133,-98,-1876,-16,34,-4,136,0,0,0,0,0,0,0,0,0,0,0,
0,0,132,-97,-1889,-16,35,-4,124,0,0,0,0,0,0,0,0,0,0,0,
0,0,133,-97,-1888,-15,33,-4,125,0,0,0,0,0,0,0,0,0,0,0,
0,0,141,-99,-1895,-15,32,-6,121,0,0,0,0,0,0,0,0,0,0,0,
0,0,137,-93,-1895,-16,34,-4,126,0,0,0,0,0,0,0,0,0,0,0,
0,0,129,-100,-1891,-17,33,-6,111,0,0,0,0,0,0,0,0,0,0,0,
0,0,135,-97,-1892,-16,33,-6,120,0,0,0,0,0,0,0,0,0,0,0,
0,0,137,-95,-1896,-16,34,-4,123,0,0,0,0,0,0,0,0,0,0,0,
0,0,136,-102,-1888,-16,34,-7,120,0,0,0,0,0,0,0,0,0,0,0,
0,0,138,-103,-1893,-14,33,-4,120,0,0,0,0,0,0,0,0,0,0,0,
0,0,140,-95,-1895,-14,32,-6,125,0,0,0,0,0,0,0,0,0,0,0,
0,0,133,-95,-1894,-15,32,-6,118,0,0,0,0,0,0,0,0,0,0,0,
0,0,138,-99,-1885,-17,33,-6,127,0,0,0,0,0,0,0,0,0,0,0,
0,0,137,-96,-1897,-17,34,-4,120,0,0,0,0,0,0,0,0,0,0,0,
0,0,139,-100,-1896,-16,35,-6,119,0,0,0,0,0,0,0,0,0,0,0,
0,0,130,-97,-1896,-17,32,-7,108,0,0,0,0,0,0,0,0,0,0,0,
0,0,136,-93,-1896,-17,34,-6,121,0,0,0,0,0,0,0,0,0,0,0,
0,0,137,-99,-1889,-17,34,-6,123,0,0,0,0,0,0,0,0,0,0,0,
0,0,140,-94,-1899,-17,34,-6,121,0,0,0,0,0,0,0,0,0,0,0,
0,0,140,-97,-1890,-16,33,-7,126,0,0,0,0,0,0,0,0,0,0,0,
0,0,132,-98,-1893,-15,32,-6,115,0,0,0,0,0,0,0,0,0,0,0,
0,0,137,-96,-1896,-16,33,-4,121,0,0,0,0,0,0,0,0,0,0,0,
0,0,146,-93,-1883,-16,34,-4,147,0,0,0,0,0,0,0,0,0,0,0,
0,0,135,-94,-1884,-17,32,-6,129,0,0,0,0,0,0,0,0,0,0,0,
0,0,135,-99,-1888,-17,32,-4,122,0,0,0,0,0,0,0,0,0,0,0,
0,0,125,-105,-1881,-16,33,-6,113,0,0,0,0,0,0,0,0,0,0,0,
0,0,140,-95,-1883,-15,33,-4,139,0,0,0,0,0,0,0,0,0,0,0,
0,0,141,-97,-1884,-16,34,-4,137,0,0,0,0,0,0,0,0,0,0,0,
0,0,138,-98,-1893,-15,34,-4,125,0,0,0,0,0,0,0,0,0,0,0,
0,0,141,-97,-1898,-16,33,-7,119,0,0,0,0,0,0,0,0,0,0,0,
0,0,136,-97,-1887,-15,34,-7,127,0,0,0,0,0,0,0,0,0,0,0,
0,0,148,-99,-1895,-15,33,-6,129,0,0,0,0,0,0,0,0,0,0,0,
0,0,142,-100,-1895,-16,33,-7,120,0,0,0,0,0,0,0,0,0,0,0,
0,0,140,-98,-1884,-17,33,-4,133,0,0,0,0,0,0,0,0,0,0,0,
0,0,142,-96,-1891,-16,33,-4,131,0,0,0,0,0,0,0,0,0,0,0,
0,0,134,-101,-1885,-15,35,-4,127,0,0,0,0,0,0,0,0,0,0,0,
0,0,133,-99,-1886,-16,33,-4,124,0,0,0,0,0,0,0,0,0,0,0,
0,0,136,-91,-1897,-16,32,-4,123,0,0,0,0,0,0,0,0,0,0,0,
0,0,136,-89,-1884,-16,33,-4,139,0,0,0,0,0,0,0,0,0,0,0,
0,0,131,-97,-1894,-16,34,-4,117,0,0,0,0,0,0,0,0,0,0,0,
0,0,139,-94,-1885,-16,32,-4,135,0,0,0,0,0,0,0,0,0,0,0,
0,0,143,-89,-1881,-15,32,-4,149,0,0,0,0,0,0,0,0,0,0,0,
0,0,140,-89,-1892,-15,32,-4,135,0,0,0,0,0,0,0,0,0,0,0,
0,0,139,-94,-1897,-16,33,-4,124,0,0,0,0,0,0,0,0,0,0,0,
0,0,137,-95,-1892,-16,32,-6,123,0,0,0,0,0,0,0,0,0,0,0,
0,0,142,-96,-1902,-17,32,-8,114,0,0,0,0,0,0,0,0,0,0,0,
0,0,138,-97,-1896,-16,33,-8,117,0,0,0,0,0,0,0,0,0,0,0,
0,0,137,-104,-1897,-15,34,-6,112,0,0,0,0,0,0,0,0,0,0,0,
0,0,134,-95,-1894,-14,34,-4,124,0,0,0,0,0,0,0,0,0,0,0,
0,0,136,-96,-1893,-15,34,-6,123,0,0,0,0,0,0,0,0,0,0,0,
0,0,137,-94,-1886,-17,32,-4,131,0,0,0,0,0,0,0,0,0,0,0,
0,0,145,-96,-1889,-16,32,-4,135,0,0,0,0,0,0,0,0,0,0,0,
0,0,139,-96,-1899,-16,34,-6,119,0,0,0,0,0,0,0,0,0,0,0,
0,0,127,-93,-1894,-16,34,-6,115,0,0,0,0,0,0,0,0,0,0,0,
0,0,130,-97,-1897,-17,33,-6,109,0,0,0,0,0,0,0,0,0,0,0,
0,0,130,-96,-1881,-16,33,-6,127,0,0,0,0,0,0,0,0,0,0,0,
0,0,130,-96,-1894,-16,33,-4,116,0,0,0,0,0,0,0,0,0,0,0,
0,0,134,-88,-1881,-16,34,-6,140,0,0,0,0,0,0,0,0,0,0,0,
0,0,144,-96,-1884,-15,32,-6,138,0,0,0,0,0,0,0,0,0,0,0,
0,0,135,-93,-1891,-15,33,-6,126,0,0,0,0,0,0,0,0,0,0,0,
0,0,136,-92,-1888,-14,33,-4,134,0,0,0,0,0,0,0,0,0,0,0,
0,0,142,-93,-1892,-15,33,-4,134,0,0,0,0,0,0,0,0,0,0,0,
0,0,143,-95,-1889,-17,34,-4,135,0,0,0,0,0,0,0,0,0,0,0,
0,0,138,-94,-1885,-18,34,-3,135,0,0,0,0,0,0,0,0,0,0,0,
0,0,137,-88,-1892,-16,33,-4,133,0,0,0,0,0,0,0,0,0,0,0,
0,0,136,-90,-1903,-15,32,-6,117,0,0,0,0,0,0,0,0,0,0,0,
0,0,141,-103,-1904,-15,33,-4,111,0,0,0,0,0,0,0,0,0,0,0,
0,0,144,-94,-1885,-15,31,-4,140,0,0,0,0,0,0,0,0,0,0,0,
0,0,139,-98,-1889,-16,33,-4,128,0,0,0,0,0,0,0,0,0,0,0,
0,0,141,-96,-1890,-15,32,-4,131,0,0,0,0,0,0,0,0,0,0,0,
0,0,140,-101,-1896,-14,32,-4,120,0,0,0,0,0,0,0,0,0,0,0,
0,0,141,-99,-1892,-16,33,-4,126,0,0,0,0,0,0,0,0,0,0,0,
0,0,140,-96,-1884,-16,35,-4,138,0,0,0,0,0,0,0,0,0,0,0,
0,0,134,-96,-1880,-17,33,-4,133,0,0,0,0,0,0,0,0,0,0,0,
0,0,132,-95,-1883,-16,32,-4,129,0,0,0,0,0,0,0,0,0,0,0,
0,0,132,-94,-1881,-17,33,-4,132,0,0,0,0,0,0,0,0,0,0,0,
0,0,136,-96,-1888,-16,33,-4,128,0,0,0,0,0,0,0,0,0,0,0,
0,0,137,-97,-1895,-15,33,-4,122,0,0,0,0,0,0,0,0,0,0,0,
0,0,132,-91,-1889,-16,33,-4,128,0,0,0,0,0,0,0,0,0,0,0,
0,0,138,-91,-1883,-16,32,-6,137,0,0,0,0,0,0,0,0,0,0,0,
0,0,134,-95,-1890,-15,32,-4,125,0,0,0,0,0,0,0,0,0,0,0,
0,0,136,-96,-1888,-15,33,-6,127,0,0,0,0,0,0,0,0,0,0,0,
0,0,130,-99,-1887,-16,34,-6,119,0,0,0,0,0,0,0,0,0,0,0,
0,0,124,-100,-1892,-15,35,-6,109,0,0,0,0,0,0,0,0,0,0,0,
0,0,139,-96,-1893,-15,35,-4,129,0,0,0,0,0,0,0,0,0,0,0,
0,0,134,-101,-1893,-15,31,-4,115,0,0,0,0,0,0,0,0,0,0,0,
0,0,132,-95,-1892,-15,33,-4,122,0,0,0,0,0,0,0,0,0,0,0,
0,0,134,-94,-1879,-17,32,-6,133,0,0,0,0,0,0,0,0,0,0,0,
0,0,134,-90,-1887,-16,34,-6,132,0,0,0,0,0,0,0,0,0,0,0,
0,0,137,-94,-1894,-15,32,-4,125,0,0,0,0,0,0,0,0,0,0,0,
0,0,134,-96,-1885,-15,33,-4,130,0,0,0,0,0,0,0,0,0,0,0,
0,0,142,-100,-1893,-16,33,-7,122,0,0,0,0,0,0,0,0,0,0,0,
0,0,138,-93,-1900,-15,32,-7,118,0,0,0,0,0,0,0,0,0,0,0,
0,0,138,-89,-1892,-16,33,-6,131,0,0,0,0,0,0,0,0,0,0,0,
0,0,136,-95,-1879,-15,33,-6,137,0,0,0,0,0,0,0,0,0,0,0,
0,0,127,-101,-1881,-17,34,-4,121,0,0,0,0,0,0,0,0,0,0,0,
0,0,126,-95,-1884,-16,33,-4,123,0,0,0,0,0,0,0,0,0,0,0,
0,0,137,-94,-1888,-16,32,-4,130,0,0,0,0,0,0,0,0,0,0,0,
0,0,135,-93,-1894,-16,34,-4,125,0,0,0,0,0,0,0,0,0,0,0,
0,0,136,-96,-1894,-17,35,-4,123,0,0,0,0,0,0,0,0,0,0,0,
0,0,136,-90,-1893,-16,33,-6,127,0,0,0,0,0,0,0,0,0,0,0,
0,0,135,-93,-1896,-16,35,-4,124,0,0,0,0,0,0,0,0,0,0,0,
0,0,134,-89,-1896,-15,34,-4,127,0,0,0,0,0,0,0,0,0,0,0,
0,0,137,-92,-1896,-15,34,-6,125,0,0,0,0,0,0,0,0,0,0,0,
0,0,138,-96,-1891,-16,33,-6,125,0,0,0,0,0,0,0,0,0,0,0,
0,0,139,-100,-1893,-15,34,-4,124,0,0,0,0,0,0,0,0,0,0,0,
0,0,139,-102,-1888,-15,32,-4,125,0,0,0,0,0,0,0,0,0,0,0,
0,0,139,-99,-1880,-15,31,-4,135,0,0,0,0,0,0,0,0,0,0,0,
0,0,143,-95,-1904,-16,34,-4,121,0,0,0,0,0,0,0,0,0,0,0,
0,0,134,-102,-1885,-16,33,-6,121,0,0,0,0,0,0,0,0,0,0,0,
0,0,129,-93,-1895,-15,33,-4,118,0,0,0,0,0,0,0,0,0,0,0,
0,0,133,-96,-1891,-15,34,-6,122,0,0,0,0,0,0,0,0,0,0,0,
0,0,139,-93,-1884,-13,33,-6,139,0,0,0,0,0,0,0,0,0,0,0,
0,0,142,-94,-1884,-15,31,-6,137,0,0,0,0,0,0,0,0,0,0,0,
0,0,142,-99,-1880,-16,32,-7,135,0,0,0,0,0,0,0,0,0,0,0,
0,0,135,-99,-1883,-17,33,-6,126,0,0,0,0,0,0,0,0,0,0,0,
0,0,140,-99,-1882,-16,33,-6,133,0,0,0,0,0,0,0,0,0,0,0,
0,0,137,-94,-1888,-16,35,-4,133,0,0,0,0,0,0,0,0,0,0,0,
0,0,138,-95,-1872,-15,34,-4,149,0,0,0,0,0,0,0,0,0,0,0,
0,0,130,-96,-1879,-15,34,-6,131,0,0,0,0,0,0,0,0,0,0,0,
0,0,126,-100,-1890,-16,35,-6,112,0,0,0,0,0,0,0,0,0,0,0,
0,0,130,-98,-1898,-16,34,-6,109,0,0,0,0,0,0,0,0,0,0,0,
0,0,137,-100,-1884,-17,34,-6,127,0,0,0,0,0,0,0,0,0,0,0,
0,0,137,-101,-1880,-17,34,-4,132,0,0,0,0,0,0,0,0,0,0,0,
0,0,135,-96,-1891,-16,33,-6,122,0,0,0,0,0,0,0,0,0,0,0,
0,0,144,-92,-1889,-16,33,-6,137,0,0,0,0,0,0,0,0,0,0,0,
0,0,135,-100,-1891,-16,34,-7,118,0,0,0,0,0,0,0,0,0,0,0,
0,0,140,-96,-1882,-16,34,-4,139,0,0,0,0,0,0,0,0,0,0,0,
0,0,137,-93,-1882,-16,34,-6,137,0,0,0,0,0,0,0,0,0,0,0,
0,0,133,-93,-1891,-16,32,-4,124,0,0,0,0,0,0,0,0,0,0,0,
0,0,134,-97,-1889,-17,33,-6,121,0,0,0,0,0,0,0,0,0,0,0,
0,0,137,-95,-1895,-16,32,-4,122,0,0,0,0,0,0,0,0,0,0,0,
0,0,138,-99,-1887,-17,32,-6,124,0,0,0,0,0,0,0,0,0,0,0,
0,0,140,-97,-1892,-16,33,-4,127,0,0,0,0,0,0,0,0,0,0,0,
0,0,140,-98,-1891,-16,33,-4,127,0,0,0,0,0,0,0,0,0,0,0,
0,0,139,-97,-1891,-17,33,-6,124,0,0,0,0,0,0,0,0,0,0,0,
0,0,137,-94,-1886,-18,32,-6,128,0,0,0,0,0,0,0,0,0,0,0,
0,0,140,-95,-1883,-16,32,-4,137,0,0,0,0,0,0,0,0,0,0,0,
0,0,136,-104,-1885,-16,32,-4,122,0,0,0,0,0,0,0,0,0,0,0,
0,0,132,-100,-1893,-15,33,-4,116,0,0,0,0,0,0,0,0,0,0,0,
0,0,141,-93,-1893,-16,32,-6,128,0,0,0,0,0,0,0,0,0,0,0,
0,0,130,-90,-1889,-17,33,-6,124,0,0,0,0,0,0,0,0,0,0,0,
0,0,132,-99,-1885,-16,34,-7,122,0,0,0,0,0,0,0,0,0,0,0,
0,0,141,-90,-1891,-16,33,-7,133,0,0,0,0,0,0,0,0,0,0,0,
0,0,141,-97,-1890,-16,32,-6,127,0,0,0,0,0,0,0,0,0,0,0,
0,0,135,-96,-1881,-16,33,-4,134,0,0,0,0,0,0,0,0,0,0,0,
0,0,147,-101,-1885,-17,34,-4,137,0,0,0,0,0,0,0,0,0,0,0,
0,0,139,-100,-1890,-16,34,-6,124,0,0,0,0,0,0,0,0,0,0,0,
0,0,131,-102,-1886,-16,34,-4,120,0,0,0,0,0,0,0,0,0,0,0,
0,0,131,-94,-1890,-17,34,-6,121,0,0,0,0,0,0,0,0,0,0,0,
0,0,138,-91,-1883,-15,34,-4,142,0,0,0,0,0,0,0,0,0,0,0,
0,0,139,-90,-1892,-15,34,-4,135,0,0,0,0,0,0,0,0,0,0,0,
0,0,141,-96,-1888,-17,32,-4,131,0,0,0,0,0,0,0,0,0,0,0,
0,0,133,-97,-1885,-17,31,-4,124,0,0,0,0,0,0,0,0,0,0,0,
0,0,138,-92,-1883,-16,32,-6,136,0,0,0,0,0,0,0,0,0,0,0,
0,0,136,-100,-1886,-16,34,-4,127,0,0,0,0,0,0,0,0,0,0,0,
0,0,137,-103,-1893,-16,34,-4,118,0,0,0,0,0,0,0,0,0,0,0,
0,0,133,-94,-1893,-16,32,-6,119,0,0,0,0,0,0,0,0,0,0,0,
0,0,136,-94,-1882,-16,32,-6,133,0,0,0,0,0,0,0,0,0,0,0,
0,0,140,-98,-1878,-17,33,-6,137,0,0,0,0,0,0,0,0,0,0,0,
0,0,136,-96,-1886,-15,35,-4,133,0,0,0,0,0,0,0,0,0,0,0,
0,0,140,-106,-1885,-15,34,-4,127,0,0,0,0,0,0,0,0,0,0,0,
0,0,134,-98,-1893,-16,33,-4,119,0,0,0,0,0,0,0,0,0,0,0,
0,0,128,-93,-1881,-15,34,-7,129,0,0,0,0,0,0,0,0,0,0,0,
0,0,136,-94,-1892,-16,32,-4,125,0,0,0,0,0,0,0,0,0,0,0,
0,0,138,-85,-1895,-16,33,-4,134,0,0,0,0,0,0,0,0,0,0,0,
0,0,131,-90,-1903,-18,35,-4,114,0,0,0,0,0,0,0,0,0,0,0,
0,0,134,-95,-1893,-17,35,-4,123,0,0,0,0,0,0,0,0,0,0,0,
0,0,137,-99,-1894,-17,34,-4,120,0,0,0,0,0,0,0,0,0,0,0,
0,0,135,-97,-1890,-15,34,-4,126,0,0,0,0,0,0,0,0,0,0,0,
0,0,137,-99,-1878,-16,34,-6,135,0,0,0,0,0,0,0,0,0,0,0,
0,0,137,-102,-1894,-15,34,-7,116,0,0,0,0,0,0,0,0,0,0,0,
0,0,138,-99,-1901,-16,34,-6,113,0,0,0,0,0,0,0,0,0,0,0,
0,0,134,-97,-1899,-16,35,-4,116,0,0,0,0,0,0,0,0,0,0,0,
0,0,144,-97,-1885,-15,33,-4,139,0,0,0,0,0,0,0,0,0,0,0,
0,0,143,-100,-1886,-16,33,-6,131,0,0,0,0,0,0,0,0,0,0,0,
0,0,128,-96,-1887,-15,33,-6,120,0,0,0,0,0,0,0,0,0,0,0,
0,0,138,-95,-1885,-16,31,-6,130,0,0,0,0,0,0,0,0,0,0,0,
0,0,146,-90,-1889,-16,33,-6,141,0,0,0,0,0,0,0,0,0,0,0,
0,0,146,-99,-1890,-17,34,-4,133,0,0,0,0,0,0,0,0,0,0,0,
0,0,139,-97,-1894,-16,34,-4,125,0,0,0,0,0,0,0,0,0,0,0,
0,0,138,-97,-1900,-15,33,-4,118,0,0,0,0,0,0,0,0,0,0,0,
0,0,141,-91,-1891,-16,33,-4,135,0,0,0,0,0,0,0,0,0,0,0,
0,0,138,-89,-1896,-16,33,-4,129,0,0,0,0,0,0,0,0,0,0,0,
0,0,131,-90,-1893,-15,32,-4,124,0,0,0,0,0,0,0,0,0,0,0,
0,0,130,-96,-1897,-16,31,-4,111,0,0,0,0,0,0,0,0,0,0,0,
0,0,142,-105,-1885,-17,34,-6,126,0,0,0,0,0,0,0,0,0,0,0,
0,0,139,-99,-1872,-17,35,-6,143,0,0,0,0,0,0,0,0,0,0,0,
0,0,133,-92,-1893,-16,34,-7,122,0,0,0,0,0,0,0,0,0,0,0,
0,0,138,-96,-1890,-15,33,-4,129,0,0,0,0,0,0,0,0,0,0,0,
0,0,142,-97,-1880,-14,32,-7,139,0,0,0,0,0,0,0,0,0,0,0,
0,0,140,-92,-1885,-14,33,-6,139,0,0,0,0,0,0,0,0,0,0,0,
0,0,140,-88,-1888,-15,35,-4,143,0,0,0,0,0,0,0,0,0,0,0,
0,0,141,-92,-1896,-16,32,-6,126,0,0,0,0,0,0,0,0,0,0,0,
0,0,136,-98,-1900,-17,32,-6,110,0,0,0,0,0,0,0,0,0,0,0,
0,0,137,-96,-1884,-17,33,-6,130,0,0,0,0,0,0,0,0,0,0,0,
0,0,139,-98,-1887,-16,32,-4,129,0,0,0,0,0,0,0,0,0,0,0,
0,0,139,-100,-1883,-15,32,-4,132,0,0,0,0,0,0,0,0,0,0,0,
0,0,139,-101,-1890,-16,32,-6,121,0,0,0,0,0,0,0,0,0,0,0,
0,0,142,-94,-1908,-16,33,-4,116,0,0,0,0,0,0,0,0,0,0,0,
0,0,131,-87,-1893,-17,34,-4,127,0,0,0,0,0,0,0,0,0,0,0,
0,0,132,-94,-1893,-16,33,-6,119,0,0,0,0,0,0,0,0,0,0,0,
0,0,133,-94,-1897,-15,34,-4,120,0,0,0,0,0,0,0,0,0,0,0,
0,0,137,-98,-1885,-16,32,-4,129,0,0,0,0,0,0,0,0,0,0,0,
0,0,140,-98,-1891,-17,33,-4,126,0,0,0,0,0,0,0,0,0,0,0,
0,0,135,-94,-1892,-16,33,-4,125,0,0,0,0,0,0,0,0,0,0,0,
0,0,135,-90,-1897,-16,35,-6,124,0,0,0,0,0,0,0,0,0,0,0,
0,0,142,-93,-1897,-17,33,-4,127,0,0,0,0,0,0,0,0,0,0,0,
0,0,138,-101,-1896,-16,33,-4,117,0,0,0,0,0,0,0,0,0,0,0,
0,0,136,-105,-1895,-16,32,-4,111,0,0,0,0,0,0,0,0,0,0,0,
0,0,132,-100,-1890,-16,32,-4,117,0,0,0,0,0,0,0,0,0,0,0,
0,0,141,-95,-1884,-16,34,-4,139,0,0,0,0,0,0,0,0,0,0,0,
0,0,135,-96,-1895,-16,35,-6,120,0,0,0,0,0,0,0,0,0,0,0,
0,0,134,-95,-1886,-17,32,-6,125,0,0,0,0,0,0,0,0,0,0,0,
0,0,124,-102,-1886,-16,32,-6,109,0,0,0,0,0,0,0,0,0,0,0,
0,0,139,-100,-1881,-17,33,-4,133,0,0,0,0,0,0,0,0,0,0,0,
0,0,146,-88,-1885,-17,34,-4,149,0,0,0,0,0,0,0,0,0,0,0,
0,0,138,-93,-1888,-16,33,-6,131,0,0,0,0,0,0,0,0,0,0,0,
0,0,135,-85,-1886,-15,34,-6,140,0,0,0,0,0,0,0,0,0,0,0,
0,0,138,-91,-1890,-16,33,-6,131,0,0,0,0,0,0,0,0,0,0,0,
0,0,133,-95,-1884,-16,32,-6,127,0,0,0,0,0,0,0,0,0,0,0,
0,0,138,-98,-1886,-15,33,-7,128,0,0,0,0,0,0,0,0,0,0,0,
0,0,137,-102,-1887,-14,32,-6,123,0,0,0,0,0,0,0,0,0,0,0,
0,0,136,-98,-1900,-15,33,-6,113,0,0,0,0,0,0,0,0,0,0,0,
0,0,138,-99,-1893,-16,33,-4,122,0,0,0,0,0,0,0,0,0,0,0,
0,0,140,-96,-1888,-15,33,-6,131,0,0,0,0,0,0,0,0,0,0,0,
0,0,138,-98,-1880,-15,33,-6,135,0,0,0,0,0,0,0,0,0,0,0,
0,0,132,-91,-1892,-17,33,-4,124,0,0,0,0,0,0,0,0,0,0,0,
0,0,137,-101,-1894,-16,33,-4,118,0,0,0,0,0,0,0,0,0,0,0,
0,0,131,-105,-1889,-16,32,-4,112,0,0,0,0,0,0,0,0,0,0,0,
0,0,127,-97,-1890,-16,34,-6,115,0,0,0,0,0,0,0,0,0,0,0,
0,0,137,-101,-1886,-16,35,-4,128,0,0,0,0,0,0,0,0,0,0,0,
0,0,136,-101,-1886,-15,35,-4,128,0,0,0,0,0,0,0,0,0,0,0,
0,0,140,-98,-1896,-14,33,-4,124,0,0,0,0,0,0,0,0,0,0,0,
0,0,142,-96,-1888,-15,34,-4,136,0,0,0,0,0,0,0,0,0,0,0,
0,0,136,-100,-1881,-17,32,-4,129,0,0,0,0,0,0,0,0,0,0,0,
0,0,132,-101,-1889,-19,33,-4,115,0,0,0,0,0,0,0,0,0,0,0,
0,0,131,-101,-1900,-17,32,-4,104,0,0,0,0,0,0,0,0,0,0,0,
0,0,143,-99,-1902,-15,32,-6,116,0,0,0,0,0,0,0,0,0,0,0,
0,0,138,-95,-1885,-14,33,-7,133,0,0,0,0,0,0,0,0,0,0,0,
0,0,136,-96,-1884,-14,31,-4,132,0,0,0,0,0,0,0,0,0,0,0,
0,0,142,-96,-1887,-16,32,-6,132,0,0,0,0,0,0,0,0,0,0,0,
0,0,136,-98,-1892,-18,31,-4,118,0,0,0,0,0,0,0,0,0,0,0,
0,0,139,-94,-1888,-17,32,-4,131,0,0,0,0,0,0,0,0,0,0,0,
0,0,134,-92,-1892,-15,33,-4,127,0,0,0,0,0,0,0,0,0,0,0,
0,0,143,-100,-1893,-15,33,-4,127,0,0,0,0,0,0,0,0,0,0,0,
0,0,151,-107,-1903,-15,34,-4,119,0,0,0,0,0,0,0,0,0,0,0,
0,0,140,-106,-1897,-17,35,-6,112,0,0,0,0,0,0,0,0,0,0,0,
0,0,136,-95,-1905,-17,35,-4,113,0,0,0,0,0,0,0,0,0,0,0,
0,0,139,-94,-1897,-17,34,-6,122,0,0,0,0,0,0,0,0,0,0,0,
0,0,137,-94,-1888,-16,33,-6,129,0,0,0,0,0,0,0,0,0,0,0,
0,0,136,-92,-1895,-14,33,-4,127,0,0,0,0,0,0,0,0,0,0,0,
0,0,135,-97,-1885,-16,31,-6,125,0,0,0,0,0,0,0,0,0,0,0,
0,0,136,-95,-1887,-18,32,-6,125,0,0,0,0,0,0,0,0,0,0,0,
0,0,139,-97,-1889,-17,31,-6,124,0,0,0,0,0,0,0,0,0,0,0,
0,0,152,-108,-1888,-15,33,-6,131,0,0,0,0,0,0,0,0,0,0,0,
0,0,142,-103,-1875,-15,35,-4,143,0,0,0,0,0,0,0,0,0,0,0,
0,0,143,-99,-1871,-15,33,-6,148,0,0,0,0,0,0,0,0,0,0,0,
0,0,137,-95,-1884,-16,34,-6,133,0,0,0,0,0,0,0,0,0,0,0,
0,0,134,-94,-1885,-18,33,-4,129,0,0,0,0,0,0,0,0,0,0,0,
0,0,142,-100,-1874,-18,32,-4,141,0,0,0,0,0,0,0,0,0,0,0,
0,0,139,-97,-1878,-15,31,-6,137,0,0,0,0,0,0,0,0,0,0,0,
0,0,130,-93,-1875,-16,33,-6,136,0,0,0,0,0,0,0,0,0,0,0,
0,0,144,-93,-1896,-17,32,-4,129,0,0,0,0,0,0,0,0,0,0,0,
0,0,141,-96,-1889,-16,32,-4,131,0,0,0,0,0,0,0,0,0,0,0,
0,0,137,-97,-1893,-17,33,-6,120,0,0,0,0,0,0,0,0,0,0,0,
0,0,138,-94,-1891,-18,32,-4,126,0,0,0,0,0,0,0,0,0,0,0,
0,0,131,-97,-1887,-17,31,-4,120,0,0,0,0,0,0,0,0,0,0,0,
0,0,136,-88,-1871,-16,32,-4,152,0,0,0,0,0,0,0,0,0,0,0,
0,0,135,-94,-1893,-15,33,-7,122,0,0,0,0,0,0,0,0,0,0,0,
0,0,135,-98,-1894,-15,33,-6,118,0,0,0,0,0,0,0,0,0,0,0,
0,0,127,-101,-1896,-17,33,-3,106,0,0,0,0,0,0,0,0,0,0,0,
0,0,133,-98,-1901,-16,33,-4,110,0,0,0,0,0,0,0,0,0,0,0,
0,0,140,-100,-1888,-16,34,-3,130,0,0,0,0,0,0,0,0,0,0,0,
0,0,142,-103,-1889,-16,34,-4,127,0,0,0,0,0,0,0,0,0,0,0,
0,0,140,-97,-1885,-16,34,-4,135,0,0,0,0,0,0,0,0,0,0,0,
0,0,141,-94,-1891,-16,33,-4,132,0,0,0,0,0,0,0,0,0,0,0,
0,0,141,-97,-1895,-16,33,-4,125,0,0,0,0,0,0,0,0,0,0,0,
0,0,138,-94,-1893,-15,33,-6,126,0,0,0,0,0,0,0,0,0,0,0,
0,0,140,-96,-1894,-15,32,-4,126,0,0,0,0,0,0,0,0,0,0,0,
0,0,141,-83,-1883,-15,34,-4,153,0,0,0,0,0,0,0,0,0,0,0,
0,0,134,-99,-1891,-17,34,-4,120,0,0,0,0,0,0,0,0,0,0,0,
0,0,140,-98,-1893,-17,32,-4,123,0,0,0,0,0,0,0,0,0,0,0,
0,0,127,-94,-1883,-17,32,-6,122,0,0,0,0,0,0,0,0,0,0,0,
0,0,137,-95,-1884,-18,33,-4,132,0,0,0,0,0,0,0,0,0,0,0,
0,0,139,-98,-1890,-16,33,-6,125,0,0,0,0,0,0,0,0,0,0,0,
0,0,133,-97,-1883,-14,33,-6,129,0,0,0,0,0,0,0,0,0,0,0,
0,0,135,-95,-1891,-15,35,-6,126,0,0,0,0,0,0,0,0,0,0,0,
0,0,133,-93,-1882,-18,33,-6,130,0,0,0,0,0,0,0,0,0,0,0,
0,0,131,-97,-1880,-17,32,-8,124,0,0,0,0,0,0,0,0,0,0,0,
0,0,138,-92,-1885,-15,31,-4,136,0,0,0,0,0,0,0,0,0,0,0,
0,0,140,-92,-1892,-16,33,-4,132,0,0,0,0,0,0,0,0,0,0,0,
0,0,140,-93,-1888,-17,32,-4,133,0,0,0,0,0,0,0,0,0,0,0,
0,0,133,-96,-1895,-18,34,-6,115,0,0,0,0,0,0,0,0,0,0,0,
0,0,135,-97,-1880,-17,32,-6,130,0,0,0,0,0,0,0,0,0,0,0,
0,0,135,-95,-1886,-16,35,-6,130,0,0,0,0,0,0,0,0,0,0,0,
0,0,137,-98,-1882,-15,34,-6,133,0,0,0,0,0,0,0,0,0,0,0,
0,0,135,-91,-1884,-14,33,-4,138,0,0,0,0,0,0,0,0,0,0,0,
0,0,147,-91,-1893,-14,34,-4,142,0,0,0,0,0,0,0,0,0,0,0,
0,0,143,-97,-1896,-16,33,-4,126,0,0,0,0,0,0,0,0,0,0,0,
0,0,141,-104,-1894,-17,33,-4,118,0,0,0,0,0,0,0,0,0,0,0,
0,0,139,-106,-1900,-16,34,-4,110,0,0,0,0,0,0,0,0,0,0,0,
0,0,145,-103,-1891,-16,33,-6,125,0,0,0,0,0,0,0,0,0,0,0,
0,0,136,-102,-1875,-15,34,-6,135,0,0,0,0,0,0,0,0,0,0,0,
0,0,130,-97,-1889,-14,33,-4,122,0,0,0,0,0,0,0,0,0,0,0,
0,0,129,-101,-1897,-14,33,-4,109,0,0,0,0,0,0,0,0,0,0,0,
0,0,133,-100,-1886,-16,31,-6,119,0,0,0,0,0,0,0,0,0,0,0,
0,0,132,-105,-1894,-16,32,-6,106,0,0,0,0,0,0,0,0,0,0,0,
0,0,123,-94,-1891,-16,33,-6,112,0,0,0,0,0,0,0,0,0,0,0,
0,0,129,-98,-1883,-15,33,-6,123,0,0,0,0,0,0,0,0,0,0,0,
0,0,135,-97,-1892,-15,33,-6,121,0,0,0,0,0,0,0,0,0,0,0,
0,0,139,-90,-1887,-16,34,-4,139,0,0,0,0,0,0,0,0,0,0,0,
0,0,142,-92,-1886,-15,34,-4,142,0,0,0,0,0,0,0,0,0,0,0,
0,0,138,-98,-1903,-16,33,-4,113,0,0,0,0,0,0,0,0,0,0,0,
0,0,138,-99,-1899,-15,33,-6,115,0,0,0,0,0,0,0,0,0,0,0,
0,0,137,-94,-1888,-17,32,-4,129,0,0,0,0,0,0,0,0,0,0,0,
0,0,142,-99,-1885,-17,32,-6,130,0,0,0,0,0,0,0,0,0,0,0,
0,0,139,-99,-1895,-16,32,-4,120,0,0,0,0,0,0,0,0,0,0,0,
0,0,138,-91,-1886,-17,33,-6,134,0,0,0,0,0,0,0,0,0,0,0,
0,0,137,-93,-1895,-17,33,-4,124,0,0,0,0,0,0,0,0,0,0,0,
0,0,136,-97,-1889,-15,33,-4,127,0,0,0,0,0,0,0,0,0,0,0,
0,0,133,-98,-1907,-16,33,-7,101,0,0,0,0,0,0,0,0,0,0,0,
0,0,129,-94,-1899,-15,34,-6,112,0,0,0,0,0,0,0,0,0,0,0,
0,0,131,-90,-1887,-15,33,-6,129,0,0,0,0,0,0,0,0,0,0,0,
0,0,136,-89,-1877,-15,32,-6,144,0,0,0,0,0,0,0,0,0,0,0,
0,0,143,-98,-1888,-15,33,-7,131,0,0,0,0,0,0,0,0,0,0,0,
0,0,140,-102,-1892,-16,34,-6,121,0,0,0,0,0,0,0,0,0,0,0,
0,0,136,-103,-1896,-17,33,-7,109,0,0,0,0,0,0,0,0,0,0,0,
0,0,141,-95,-1898,-16,32,-6,121,0,0,0,0,0,0,0,0,0,0,0,
0,0,140,-94,-1890,-16,34,-4,133,0,0,0,0,0,0,0,0,0,0,0,
0,0,143,-101,-1891,-17,34,-6,125,0,0,0,0,0,0,0,0,0,0,0,
0,0,141,-95,-1892,-16,33,-6,128,0,0,0,0,0,0,0,0,0,0,0,
0,0,142,-94,-1892,-16,33,-4,132,0,0,0,0,0,0,0,0,0,0,0,
0,0,139,-90,-1883,-16,32,-4,141,0,0,0,0,0,0,0,0,0,0,0,
0,0,135,-101,-1884,-16,34,-4,127,0,0,0,0,0,0,0,0,0,0,0,
0,0,132,-109,-1890,-16,35,-4,111,0,0,0,0,0,0,0,0,0,0,0,
0,0,130,-94,-1898,-16,32,-4,113,0,0,0,0,0,0,0,0,0,0,0,
0,0,137,-98,-1884,-16,34,-3,133,0,0,0,0,0,0,0,0,0,0,0,
0,0,128,-101,-1874,-15,34,-4,131,0,0,0,0,0,0,0,0,0,0,0,
0,0,133,-98,-1883,-14,32,-3,130,0,0,0,0,0,0,0,0,0,0,0,
0,0,135,-98,-1882,-15,33,-4,132,0,0,0,0,0,0,0,0,0,0,0,
0,0,133,-98,-1892,-16,32,-4,118,0,0,0,0,0,0,0,0,0,0,0,
0,0,138,-100,-1892,-18,34,-4,121,0,0,0,0,0,0,0,0,0,0,0,
0,0,138,-94,-1887,-17,34,-4,133,0,0,0,0,0,0,0,0,0,0,0,
0,0,140,-94,-1882,-14,33,-4,142,0,0,0,0,0,0,0,0,0,0,0,
0,0,136,-105,-1894,-15,32,-6,111,0,0,0,0,0,0,0,0,0,0,0,
0,0,138,-97,-1880,-15,32,-4,137,0,0,0,0,0,0,0,0,0,0,0,
0,0,132,-98,-1888,-14,33,-6,122,0,0,0,0,0,0,0,0,0,0,0,
0,0,137,-104,-1880,-16,32,-6,126,0,0,0,0,0,0,0,0,0,0,0,
0,0,145,-98,-1885,-16,32,-6,135,0,0,0,0,0,0,0,0,0,0,0,
0,0,138,-97,-1895,-16,31,-6,118,0,0,0,0,0,0,0,0,0,0,0,
0,0,138,-102,-1902,-16,32,-4,109,0,0,0,0,0,0,0,0,0,0,0,
0,0,142,-100,-1885,-16,33,-4,133,0,0,0,0,0,0,0,0,0,0,0,
0,0,138,-91,-1892,-17,33,-4,130,0,0,0,0,0,0,0,0,0,0,0,
0,0,132,-95,-1879,-16,35,-4,136,0,0,0,0,0,0,0,0,0,0,0,
0,0,133,-99,-1881,-17,34,-4,129,0,0,0,0,0,0,0,0,0,0,0,
0,0,137,-98,-1886,-18,33,-4,127,0,0,0,0,0,0,0,0,0,0,0,
0,0,144,-100,-1892,-18,33,-4,126,0,0,0,0,0,0,0,0,0,0,0,
0,0,145,-100,-1889,-18,33,-4,130,0,0,0,0,0,0,0,0,0,0,0,
0,0,137,-98,-1883,-16,32,-6,129,0,0,0,0,0,0,0,0,0,0,0,
0,0,136,-92,-1891,-15,33,-6,128,0,0,0,0,0,0,0,0,0,0,0,
0,0,145,-95,-1885,-17,34,-6,139,0,0,0,0,0,0,0,0,0,0,0,
0,0,143,-97,-1881,-17,33,-4,140,0,0,0,0,0,0,0,0,0,0,0,
0,0,134,-100,-1893,-17,35,-4,118,0,0,0,0,0,0,0,0,0,0,0,
0,0,141,-98,-1891,-16,34,-6,127,0,0,0,0,0,0,0,0,0,0,0,
0,0,139,-100,-1893,-17,34,-4,122,0,0,0,0,0,0,0,0,0,0,0,
0,0,132,-90,-1893,-16,33,-6,123,0,0,0,0,0,0,0,0,0,0,0,
0,0,131,-94,-1895,-16,32,-6,115,0,0,0,0,0,0,0,0,0,0,0,
0,0,136,-99,-1886,-16,32,-4,126,0,0,0,0,0,0,0,0,0,0,0,
0,0,134,-96,-1889,-16,31,-4,123,0,0,0,0,0,0,0,0,0,0,0,
0,0,130,-100,-1890,-16,31,-6,112,0,0,0,0,0,0,0,0,0,0,0,
0,0,144,-96,-1883,-16,34,-4,142,0,0,0,0,0,0,0,0,0,0,0,
0,0,147,-97,-1888,-16,34,-4,139,0,0,0,0,0,0,0,0,0,0,0,
0,0,145,-97,-1893,-16,33,-4,131,0,0,0,0,0,0,0,0,0,0,0,
0,0,139,-104,-1898,-17,33,-7,109,0,0,0,0,0,0,0,0,0,0,0,
0,0,139,-98,-1895,-16,32,-4,121,0,0,0,0,0,0,0,0,0,0,0,
0,0,135,-95,-1884,-16,33,-4,132,0,0,0,0,0,0,0,0,0,0,0,
0,0,137,-95,-1881,-17,32,-6,133,0,0,0,0,0,0,0,0,0,0,0,
0,0,136,-94,-1879,-17,32,-4,137,0,0,0,0,0,0,0,0,0,0,0,
0,0,138,-92,-1891,-15,33,-4,132,0,0,0,0,0,0,0,0,0,0,0,
0,0,134,-99,-1895,-14,32,-4,117,0,0,0,0,0,0,0,0,0,0,0,
0,0,134,-94,-1883,-15,32,-6,131,0,0,0,0,0,0,0,0,0,0,0,
0,0,135,-105,-1887,-15,33,-6,118,0,0,0,0,0,0,0,0,0,0,0,
0,0,142,-101,-1888,-16,33,-6,127,0,0,0,0,0,0,0,0,0,0,0,
0,0,134,-95,-1898,-16,33,-4,117,0,0,0,0,0,0,0,0,0,0,0,
0,0,134,-92,-1885,-18,34,-4,132,0,0,0,0,0,0,0,0,0,0,0,
0,0,142,-101,-1884,-15,32,-4,133,0,0,0,0,0,0,0,0,0,0,0,
0,0,136,-97,-1893,-15,33,-7,120,0,0,0,0,0,0,0,0,0,0,0,
0,0,136,-98,-1896,-16,33,-6,116,0,0,0,0,0,0,0,0,0,0,0,
0,0,142,-97,-1887,-17,34,-6,132,0,0,0,0,0,0,0,0,0,0,0,
0,0,132,-102,-1885,-16,33,-7,118,0,0,0,0,0,0,0,0,0,0,0,
0,0,134,-100,-1892,-16,33,-6,116,0,0,0,0,0,0,0,0,0,0,0,
0,0,135,-97,-1886,-17,33,-7,124,0,0,0,0,0,0,0,0,0,0,0,
0,0,140,-96,-1888,-16,34,-6,131,0,0,0,0,0,0,0,0,0,0,0,
0,0,135,-99,-1882,-17,33,-4,129,0,0,0,0,0,0,0,0,0,0,0,
0,0,140,-96,-1889,-16,31,-4,129,0,0,0,0,0,0,0,0,0,0,0,
0,0,146,-103,-1892,-17,33,-4,126,0,0,0,0,0,0,0,0,0,0,0,
0,0,139,-102,-1890,-16,33,-4,123,0,0,0,0,0,0,0,0,0,0,0,
0,0,129,-103,-1887,-16,32,-4,114,0,0,0,0,0,0,0,0,0,0,0,
0,0,130,-97,-1892,-15,34,-3,120,0,0,0,0,0,0,0,0,0,0,0,
0,0,134,-100,-1887,-16,35,-4,125,0,0,0,0,0,0,0,0,0,0,0,
0,0,127,-95,-1891,-15,34,-4,119,0,0,0,0,0,0,0,0,0,0,0,
0,0,126,-99,-1897,-15,34,-4,108,0,0,0,0,0,0,0,0,0,0,0,
0,0,134,-88,-1902,-17,33,-6,117,0,0,0,0,0,0,0,0,0,0,0,
0,0,141,-98,-1898,-16,33,-3,122,0,0,0,0,0,0,0,0,0,0,0,
0,0,136,-98,-1886,-16,34,-4,129,0,0,0,0,0,0,0,0,0,0,0,
0,0,131,-90,-1883,-15,33,-4,135,0,0,0,0,0,0,0,0,0,0,0,
0,0,131,-91,-1892,-16,33,-6,122,0,0,0,0,0,0,0,0,0,0,0,
0,0,133,-95,-1885,-16,34,-4,130,0,0,0,0,0,0,0,0,0,0,0,
0,0,137,-93,-1891,-16,32,-4,128,0,0,0,0,0,0,0,0,0,0,0,
0,0,134,-97,-1889,-16,32,-7,120,0,0,0,0,0,0,0,0,0,0,0,
0,0,142,-93,-1900,-16,33,-7,122,0,0,0,0,0,0,0,0,0,0,0,
0,0,133,-100,-1890,-16,32,-6,116,0,0,0,0,0,0,0,0,0,0,0,
0,0,135,-93,-1885,-15,33,-4,134,0,0,0,0,0,0,0,0,0,0,0,
0,0,138,-104,-1886,-15,33,-6,123,0,0,0,0,0,0,0,0,0,0,0,
0,0,136,-101,-1895,-16,34,-4,117,0,0,0,0,0,0,0,0,0,0,0,
0,0,142,-92,-1894,-17,33,-4,131,0,0,0,0,0,0,0,0,0,0,0,
0,0,137,-98,-1894,-17,32,-4,119,0,0,0,0,0,0,0,0,0,0,0,
0,0,137,-91,-1899,-15,34,-6,123,0,0,0,0,0,0,0,0,0,0,0,
0,0,137,-95,-1908,-15,34,-4,112,0,0,0,0,0,0,0,0,0,0,0,
0,0,139,-91,-1897,-15,35,-4,130,0,0,0,0,0,0,0,0,0,0,0,
0,0,138,-85,-1869,-16,34,-6,159,0,0,0,0,0,0,0,0,0,0,0,
0,0,129,-98,-1885,-15,34,-7,121,0,0,0,0,0,0,0,0,0,0,0,
0,0,132,-92,-1901,-15,34,-7,114,0,0,0,0,0,0,0,0,0,0,0,
0,0,137,-98,-1891,-16,33,-6,122,0,0,0,0,0,0,0,0,0,0,0,
0,0,139,-92,-1887,-16,33,-6,134,0,0,0,0,0,0,0,0,0,0,0,
0,0,137,-92,-1883,-16,34,-7,136,0,0,0,0,0,0,0,0,0,0,0,
0,0,138,-104,-1888,-16,34,-6,121,0,0,0,0,0,0,0,0,0,0,0,
0,0,139,-96,-1885,-16,35,-6,134,0,0,0,0,0,0,0,0,0,0,0,
0,0,135,-94,-1875,-17,34,-4,142,0,0,0,0,0,0,0,0,0,0,0,
0,0,131,-100,-1876,-18,34,-4,130,0,0,0,0,0,0,0,0,0,0,0,
0,0,139,-96,-1882,-16,33,-4,137,0,0,0,0,0,0,0,0,0,0,0,
0,0,138,-95,-1885,-16,32,-4,133,0,0,0,0,0,0,0,0,0,0,0,
0,0,135,-95,-1883,-16,33,-6,131,0,0,0,0,0,0,0,0,0,0,0,
0,0,136,-90,-1897,-16,34,-4,126,0,0,0,0,0,0,0,0,0,0,0,
0,0,132,-96,-1898,-17,32,-6,110,0,0,0,0,0,0,0,0,0,0,0,
0,0,138,-91,-1894,-16,32,-6,126,0,0,0,0,0,0,0,0,0,0,0,
0,0,128,-95,-1901,-15,33,-6,107,0,0,0,0,0,0,0,0,0,0,0,
0,0,132,-93,-1899,-16,32,-6,113,0,0,0,0,0,0,0,0,0,0,0,
0,0,131,-94,-1888,-17,33,-4,124,0,0,0,0,0,0,0,0,0,0,0,
0,0,132,-100,-1901,-17,33,-4,106,0,0,0,0,0,0,0,0,0,0,0,
0,0,128,-103,-1896,-17,32,-6,101,0,0,0,0,0,0,0,0,0,0,0,
0,0,141,-98,-1880,-17,34,-6,137,0,0,0,0,0,0,0,0,0,0,0,
0,0,141,-91,-1895,-16,34,-6,130,0,0,0,0,0,0,0,0,0,0,0,
0,0,137,-97,-1896,-17,33,-4,119,0,0,0,0,0,0,0,0,0,0,0,
0,0,135,-93,-1891,-16,32,-6,124,0,0,0,0,0,0,0,0,0,0,0,
0,0,137,-94,-1908,-15,33,-4,112,0,0,0,0,0,0,0,0,0,0,0,
0,0,133,-95,-1890,-15,33,-4,125,0,0,0,0,0,0,0,0,0,0,0,
0,0,138,-100,-1901,-16,32,-6,110,0,0,0,0,0,0,0,0,0,0,0,
0,0,136,-96,-1907,-15,33,-6,108,0,0,0,0,0,0,0,0,0,0,0,
0,0,132,-98,-1894,-16,34,-4,117,0,0,0,0,0,0,0,0,0,0,0,
0,0,133,-95,-1893,-17,33,-6,118,0,0,0,0,0,0,0,0,0,0,0,
0,0,140,-91,-1884,-17,33,-7,137,0,0,0,0,0,0,0,0,0,0,0,
0,0,142,-92,-1892,-16,32,-6,131,0,0,0,0,0,0,0,0,0,0,0,
0,0,136,-93,-1896,-17,33,-7,119,0,0,0,0,0,0,0,0,0,0,0,
0,0,137,-100,-1880,-16,33,-4,133,0,0,0,0,0,0,0,0,0,0,0,
0,0,130,-101,-1883,-15,33,-6,121,0,0,0,0,0,0,0,0,0,0,0,
0,0,134,-95,-1882,-16,32,-6,130,0,0,0,0,0,0,0,0,0,0,0,
0,0,137,-100,-1886,-17,33,-6,124,0,0,0,0,0,0,0,0,0,0,0,
0,0,135,-96,-1901,-17,34,-4,114,0,0,0,0,0,0,0,0,0,0,0,
0,0,138,-99,-1902,-16,33,-6,111,0,0,0,0,0,0,0,0,0,0,0,
0,0,140,-96,-1886,-15,33,-7,132,0,0,0,0,0,0,0,0,0,0,0,
0,0,140,-95,-1895,-17,33,-4,125,0,0,0,0,0,0,0,0,0,0,0,
0,0,138,-97,-1888,-16,31,-7,124,0,0,0,0,0,0,0,0,0,0,0,
0,0,141,-91,-1892,-16,32,-6,131,0,0,0,0,0,0,0,0,0,0,0,
0,0,139,-90,-1896,-15,32,-4,129,0,0,0,0,0,0,0,0,0,0,0,
0,0,137,-101,-1893,-15,33,-7,117,0,0,0,0,0,0,0,0,0,0,0,
0,0,135,-99,-1882,-17,35,-7,128,0,0,0,0,0,0,0,0,0,0,0,
0,0,134,-103,-1886,-17,36,-6,121,0,0,0,0,0,0,0,0,0,0,0,
0,0,139,-97,-1900,-16,35,-4,120,0,0,0,0,0,0,0,0,0,0,0,
0,0,133,-92,-1883,-17,35,-6,133,0,0,0,0,0,0,0,0,0,0,0,
0,0,133,-94,-1881,-16,35,-4,136,0,0,0,0,0,0,0,0,0,0,0,
0,0,132,-96,-1884,-16,34,-4,129,0,0,0,0,0,0,0,0,0,0,0,
0,0,137,-99,-1880,-15,34,-4,136,0,0,0,0,0,0,0,0,0,0,0,
0,0,134,-89,-1882,-17,34,-4,139,0,0,0,0,0,0,0,0,0,0,0,
0,0,143,-93,-1880,-16,33,-4,146,0,0,0,0,0,0,0,0,0,0,0,
0,0,142,-99,-1885,-15,32,-3,135,0,0,0,0,0,0,0,0,0,0,0,
0,0,133,-96,-1885,-16,33,-4,128,0,0,0,0,0,0,0,0,0,0,0,
0,0,138,-100,-1886,-16,33,-4,128,0,0,0,0,0,0,0,0,0,0,0,
0,0,132,-103,-1890,-17,32,-4,113,0,0,0,0,0,0,0,0,0,0,0,
0,0,133,-96,-1901,-16,33,-4,112,0,0,0,0,0,0,0,0,0,0,0,
0,0,134,-99,-1896,-16,34,-6,114,0,0,0,0,0,0,0,0,0,0,0,
0,0,138,-92,-1897,-17,31,-6,120,0,0,0,0,0,0,0,0,0,0,0,
0,0,139,-97,-1892,-16,31,-6,122,0,0,0,0,0,0,0,0,0,0,0,
0,0,132,-95,-1885,-14,33,-4,130,0,0,0,0,0,0,0,0,0,0,0,
0,0,138,-92,-1895,-14,32,-6,126,0,0,0,0,0,0,0,0,0,0,0,
0,0,135,-94,-1906,-16,34,-7,109,0,0,0,0,0,0,0,0,0,0,0,
0,0,131,-92,-1895,-16,33,-4,120,0,0,0,0,0,0,0,0,0,0,0,
0,0,135,-94,-1887,-15,33,-6,129,0,0,0,0,0,0,0,0,0,0,0,
0,0,136,-97,-1886,-15,33,-4,130,0,0,0,0,0,0,0,0,0,0,0,
0,0,134,-100,-1882,-16,33,-6,126,0,0,0,0,0,0,0,0,0,0,0,
0,0,137,-96,-1880,-16,35,-4,139,0,0,0,0,0,0,0,0,0,0,0,
0,0,132,-94,-1891,-16,34,-4,124,0,0,0,0,0,0,0,0,0,0,0,
0,0,132,-93,-1883,-16,31,-4,130,0,0,0,0,0,0,0,0,0,0,0,
0,0,139,-98,-1886,-15,32,-4,131,0,0,0,0,0,0,0,0,0,0,0,
0,0,130,-94,-1887,-17,33,-4,124,0,0,0,0,0,0,0,0,0,0,0,
0,0,132,-99,-1888,-17,33,-6,118,0,0,0,0,0,0,0,0,0,0,0,
0,0,128,-92,-1887,-17,33,-4,124,0,0,0,0,0,0,0,0,0,0,0,
0,0,130,-92,-1888,-17,34,-4,126,0,0,0,0,0,0,0,0,0,0,0,
0,0,136,-95,-1886,-17,34,-7,128,0,0,0,0,0,0,0,0,0,0,0,
0,0,132,-105,-1896,-17,32,-4,105,0,0,0,0,0,0,0,0,0,0,0,
0,0,136,-104,-1891,-17,32,-6,113,0,0,0,0,0,0,0,0,0,0,0,
0,0,140,-100,-1906,-18,32,-6,105,0,0,0,0,0,0,0,0,0,0,0,
0,0,134,-94,-1905,-17,32,-4,109,0,0,0,0,0,0,0,0,0,0,0,
0,0,132,-88,-1894,-17,32,-4,124,0,0,0,0,0,0,0,0,0,0,0,
0,0,144,-92,-1892,-16,34,-7,134,0,0,0,0,0,0,0,0,0,0,0,
0,0,135,-96,-1891,-15,35,-4,127,0,0,0,0,0,0,0,0,0,0,0,
0,0,132,-97,-1895,-14,34,-6,117,0,0,0,0,0,0,0,0,0,0,0,
0,0,135,-92,-1886,-16,33,-7,130,0,0,0,0,0,0,0,0,0,0,0,
0,0,138,-90,-1880,-17,34,-4,144,0,0,0,0,0,0,0,0,0,0,0,
0,0,137,-94,-1899,-17,33,-4,119,0,0,0,0,0,0,0,0,0,0,0,
0,0,138,-101,-1896,-17,33,-6,114,0,0,0,0,0,0,0,0,0,0,0,
0,0,136,-94,-1887,-16,33,-6,129,0,0,0,0,0,0,0,0,0,0,0,
0,0,144,-94,-1889,-17,32,-7,132,0,0,0,0,0,0,0,0,0,0,0,
0,0,134,-95,-1894,-17,35,-6,120,0,0,0,0,0,0,0,0,0,0,0,
0,0,135,-96,-1894,-17,35,-6,120,0,0,0,0,0,0,0,0,0,0,0,
0,0,137,-94,-1887,-16,34,-7,130,0,0,0,0,0,0,0,0,0,0,0,
0,0,139,-93,-1894,-15,34,-6,128,0,0,0,0,0,0,0,0,0,0,0,
0,0,132,-95,-1885,-16,33,-4,128,0,0,0,0,0,0,0,0,0,0,0,
0,0,129,-99,-1902,-15,34,-6,104,0,0,0,0,0,0,0,0,0,0,0,
0,0,132,-98,-1892,-14,35,-6,120,0,0,0,0,0,0,0,0,0,0,0,
0,0,134,-95,-1896,-15,33,-6,118,0,0,0,0,0,0,0,0,0,0,0,
0,0,133,-105,-1897,-16,33,-6,105,0,0,0,0,0,0,0,0,0,0,0,
0,0,137,-94,-1886,-16,34,-4,134,0,0,0,0,0,0,0,0,0,0,0,
0,0,137,-99,-1892,-17,33,-4,121,0,0,0,0,0,0,0,0,0,0,0,
0,0,132,-90,-1894,-16,34,-6,123,0,0,0,0,0,0,0,0,0,0,0,
0,0,136,-86,-1894,-15,34,-6,132,0,0,0,0,0,0,0,0,0,0,0,
0,0,137,-97,-1893,-16,34,-6,122,0,0,0,0,0,0,0,0,0,0,0,
0,0,136,-103,-1890,-17,33,-6,116,0,0,0,0,0,0,0,0,0,0,0,
0,0,140,-97,-1894,-16,32,-4,124,0,0,0,0,0,0,0,0,0,0,0,
0,0,132,-97,-1895,-16,33,-4,116,0,0,0,0,0,0,0,0,0,0,0,
0,0,139,-96,-1881,-15,33,-6,137,0,0,0,0,0,0,0,0,0,0,0,
0,0,133,-102,-1893,-16,34,-6,113,0,0,0,0,0,0,0,0,0,0,0,
0,0,134,-93,-1883,-16,33,-4,134,0,0,0,0,0,0,0,0,0,0,0,
0,0,141,-92,-1884,-16,33,-6,139,0,0,0,0,0,0,0,0,0,0,0,
0,0,139,-92,-1878,-17,33,-4,144,0,0,0,0,0,0,0,0,0,0,0,
0,0,139,-96,-1888,-17,34,-4,131,0,0,0,0,0,0,0,0,0,0,0,
0,0,124,-97,-1891,-16,32,-6,109,0,0,0,0,0,0,0,0,0,0,0,
0,0,137,-85,-1888,-15,31,-4,139,0,0,0,0,0,0,0,0,0,0,0,
0,0,131,-89,-1889,-16,33,-4,129,0,0,0,0,0,0,0,0,0,0,0,
0,0,135,-91,-1892,-17,33,-6,125,0,0,0,0,0,0,0,0,0,0,0,
0,0,140,-96,-1901,-15,31,-6,116,0,0,0,0,0,0,0,0,0,0,0,
0,0,134,-99,-1889,-16,32,-6,119,0,0,0,0,0,0,0,0,0,0,0,
0,0,136,-95,-1876,-18,32,-6,136,0,0,0,0,0,0,0,0,0,0,0,
0,0,136,-93,-1888,-16,31,-6,127,0,0,0,0,0,0,0,0,0,0,0,
0,0,134,-101,-1889,-16,32,-6,117,0,0,0,0,0,0,0,0,0,0,0,
0,0,132,-100,-1904,-16,34,-6,103,0,0,0,0,0,0,0,0,0,0,0,
0,0,138,-101,-1898,-16,34,-4,116,0,0,0,0,0,0,0,0,0,0,0,
0,0,140,-100,-1879,-16,35,-4,139,0,0,0,0,0,0,0,0,0,0,0,
0,0,135,-101,-1885,-17,34,-6,123,0,0,0,0,0,0,0,0,0,0,0,
0,0,144,-104,-1901,-17,33,-6,112,0,0,0,0,0,0,0,0,0,0,0,
0,0,139,-102,-1901,-15,34,-6,112,0,0,0,0,0,0,0,0,0,0,0,
0,0,136,-97,-1891,-16,34,-7,122,0,0,0,0,0,0,0,0,0,0,0,
0,0,137,-92,-1886,-17,32,-6,131,0,0,0,0,0,0,0,0,0,0,0,
0,0,136,-94,-1884,-17,32,-6,130,0,0,0,0,0,0,0,0,0,0,0,
0,0,141,-96,-1900,-15,32,-6,119,0,0,0,0,0,0,0,0,0,0,0,
0,0,145,-98,-1883,-18,33,-6,136,0,0,0,0,0,0,0,0,0,0,0,
0,0,138,-96,-1887,-17,35,-4,132,0,0,0,0,0,0,0,0,0,0,0,
0,0,139,-85,-1888,-16,32,-6,139,0,0,0,0,0,0,0,0,0,0,0,
0,0,144,-88,-1889,-16,31,-6,139,0,0,0,0,0,0,0,0,0,0,0,
0,0,141,-95,-1891,-15,33,-6,130,0,0,0,0,0,0,0,0,0,0,0,
0,0,135,-99,-1899,-17,33,-6,110,0,0,0,0,0,0,0,0,0,0,0,
0,0,136,-95,-1901,-17,34,-6,114,0,0,0,0,0,0,0,0,0,0,0,
0,0,136,-98,-1896,-17,33,-4,117,0,0,0,0,0,0,0,0,0,0,0,
0,0,131,-93,-1896,-15,34,-4,120,0,0,0,0,0,0,0,0,0,0,0,
0,0,138,-97,-1892,-16,35,-4,127,0,0,0,0,0,0,0,0,0,0,0,
0,0,137,-94,-1878,-16,33,-4,141,0,0,0,0,0,0,0,0,0,0,0,
0,0,139,-94,-1885,-16,33,-4,136,0,0,0,0,0,0,0,0,0,0,0,
0,0,128,-99,-1890,-15,33,-4,116,0,0,0,0,0,0,0,0,0,0,0,
0,0,140,-92,-1896,-16,33,-4,128,0,0,0,0,0,0,0,0,0,0,0,
0,0,137,-88,-1887,-16,32,-6,135,0,0,0,0,0,0,0,0,0,0,0,
0,0,131,-90,-1895,-16,33,-4,122,0,0,0,0,0,0,0,0,0,0,0,
0,0,134,-89,-1889,-15,33,-4,133,0,0,0,0,0,0,0,0,0,0,0,
0,0,134,-98,-1883,-16,32,-4,128,0,0,0,0,0,0,0,0,0,0,0,
0,0,134,-99,-1885,-16,32,-4,125,0,0,0,0,0,0,0,0,0,0,0,
0,0,135,-95,-1879,-16,33,-4,137,0,0,0,0,0,0,0,0,0,0,0,
0,0,138,-94,-1881,-15,33,-4,140,0,0,0,0,0,0,0,0,0,0,0,
0,0,136,-93,-1890,-15,33,-6,128,0,0,0,0,0,0,0,0,0,0,0,
0,0,135,-97,-1883,-16,32,-6,128,0,0,0,0,0,0,0,0,0,0,0,
0,0,127,-105,-1881,-17,31,-6,112,0,0,0,0,0,0,0,0,0,0,0,
0,0,136,-93,-1879,-16,31,-4,138,0,0,0,0,0,0,0,0,0,0,0,
0,0,135,-97,-1890,-15,32,-4,124,0,0,0,0,0,0,0,0,0,0,0,
0,0,133,-99,-1891,-16,33,-6,117,0,0,0,0,0,0,0,0,0,0,0,
0,0,137,-98,-1886,-16,35,-4,131,0,0,0,0,0,0,0,0,0,0,0,
0,0,140,-101,-1880,-16,34,-6,134,0,0,0,0,0,0,0,0,0,0,0,
0,0,133,-102,-1871,-17,31,-6,131,0,0,0,0,0,0,0,0,0,0,0,
0,0,133,-96,-1877,-16,33,-4,136,0,0,0,0,0,0,0,0,0,0,0,
0,0,138,-98,-1885,-15,32,-4,131,0,0,0,0,0,0,0,0,0,0,0,
0,0,142,-95,-1898,-16,32,-6,122,0,0,0,0,0,0,0,0,0,0,0,
0,0,136,-91,-1895,-18,33,-4,124,0,0,0,0,0,0,0,0,0,0,0,
0,0,141,-94,-1884,-17,31,-4,136,0,0,0,0,0,0,0,0,0,0,0,
0,0,140,-94,-1888,-17,33,-4,133,0,0,0,0,0,0,0,0,0,0,0,
0,0,141,-99,-1888,-16,32,-7,126,0,0,0,0,0,0,0,0,0,0,0,
0,0,144,-102,-1884,-16,32,-6,131,0,0,0,0,0,0,0,0,0,0,0,
0,0,139,-97,-1883,-17,33,-6,132,0,0,0,0,0,0,0,0,0,0,0,
0,0,136,-100,-1892,-16,33,-4,120,0,0,0,0,0,0,0,0,0,0,0,
0,0,133,-97,-1892,-17,34,-6,118,0,0,0,0,0,0,0,0,0,0,0,
0,0,135,-95,-1888,-17,32,-7,123,0,0,0,0,0,0,0,0,0,0,0,
0,0,133,-90,-1889,-17,33,-7,126,0,0,0,0,0,0,0,0,0,0,0,
0,0,134,-95,-1890,-17,33,-7,121,0,0,0,0,0,0,0,0,0,0,0,
0,0,139,-97,-1880,-16,33,-4,138,0,0,0,0,0,0,0,0,0,0,0,
0,0,142,-105,-1886,-16,33,-4,127,0,0,0,0,0,0,0,0,0,0,0,
0,0,141,-97,-1889,-15,34,-4,133,0,0,0,0,0,0,0,0,0,0,0,
0,0,133,-101,-1890,-15,34,-4,120,0,0,0,0,0,0,0,0,0,0,0,
0,0,140,-100,-1886,-15,32,-4,130,0,0,0,0,0,0,0,0,0,0,0,
0,0,138,-91,-1891,-16,34,-4,133,0,0,0,0,0,0,0,0,0,0,0,
0,0,140,-103,-1889,-16,34,-6,123,0,0,0,0,0,0,0,0,0,0,0,
0,0,134,-93,-1876,-17,32,-6,137,0,0,0,0,0,0,0,0,0,0,0,
0,0,132,-97,-1878,-17,32,-4,131,0,0,0,0,0,0,0,0,0,0,0,
0,0,131,-96,-1893,-16,32,-6,115,0,0,0,0,0,0,0,0,0,0,0,
0,0,133,-90,-1901,-15,31,-4,117,0,0,0,0,0,0,0,0,0,0,0,
0,0,130,-90,-1888,-16,32,-7,124,0,0,0,0,0,0,0,0,0,0,0,
0,0,131,-101,-1880,-16,34,-6,125,0,0,0,0,0,0,0,0,0,0,0,
0,0,135,-98,-1880,-15,34,-6,133,0,0,0,0,0,0,0,0,0,0,0,
0,0,142,-92,-1883,-17,34,-7,140,0,0,0,0,0,0,0,0,0,0,0,
0,0,134,-98,-1896,-17,34,-6,114,0,0,0,0,0,0,0,0,0,0,0,
0,0,141,-104,-1880,-17,33,-4,132,0,0,0,0,0,0,0,0,0,0,0,
0,0,136,-106,-1878,-16,33,-6,126,0,0,0,0,0,0,0,0,0,0,0,
0,0,135,-100,-1892,-15,34,-6,119,0,0,0,0,0,0,0,0,0,0,0,
0,0,138,-97,-1899,-15,34,-4,120,0,0,0,0,0,0,0,0,0,0,0,
0,0,140,-101,-1899,-16,34,-4,117,0,0,0,0,0,0,0,0,0,0,0,
0,0,134,-104,-1889,-15,35,-4,120,0,0,0,0,0,0,0,0,0,0,0,
0,0,137,-94,-1896,-17,34,-6,121,0,0,0,0,0,0,0,0,0,0,0,
0,0,144,-89,-1891,-17,34,-7,137,0,0,0,0,0,0,0,0,0,0,0,
0,0,132,-99,-1886,-16,33,-6,121,0,0,0,0,0,0,0,0,0,0,0,
0,0,139,-102,-1890,-16,33,-6,121,0,0,0,0,0,0,0,0,0,0,0,
0,0,132,-95,-1895,-16,33,-6,116,0,0,0,0,0,0,0,0,0,0,0,
0,0,135,-100,-1888,-16,35,-6,123,0,0,0,0,0,0,0,0,0,0,0,
0,0,133,-94,-1890,-16,34,-4,126,0,0,0,0,0,0,0,0,0,0,0,
0,0,145,-93,-1893,-16,33,-6,133,0,0,0,0,0,0,0,0,0,0,0,
0,0,139,-96,-1891,-16,32,-4,127,0,0,0,0,0,0,0,0,0,0,0,
0,0,139,-95,-1894,-16,34,-6,125,0,0,0,0,0,0,0,0,0,0,0,
0,0,144,-89,-1898,-16,32,-4,132,0,0,0,0,0,0,0,0,0,0,0,
0,0,144,-90,-1896,-17,32,-4,132,0,0,0,0,0,0,0,0,0,0,0,
0,0,128,-103,-1893,-17,34,-6,106,0,0,0,0,0,0,0,0,0,0,0,
0,0,131,-98,-1895,-17,32,-6,110,0,0,0,0,0,0,0,0,0,0,0,
0,0,139,-92,-1900,-16,32,-7,119,0,0,0,0,0,0,0,0,0,0,0,
0,0,139,-95,-1894,-16,33,-4,126,0,0,0,0,0,0,0,0,0,0,0,
0,0,136,-102,-1890,-15,33,-4,121,0,0,0,0,0,0,0,0,0,0,0,
0,0,131,-91,-1884,-16,32,-6,129,0,0,0,0,0,0,0,0,0,0,0,
0,0,132,-90,-1899,-17,33,-6,116,0,0,0,0,0,0,0,0,0,0,0,
0,0,140,-91,-1889,-15,33,-4,137,0,0,0,0,0,0,0,0,0,0,0,
0,0,145,-88,-1879,-16,34,-4,155,0,0,0,0,0,0,0,0,0,0,0,
0,0,136,-96,-1880,-17,34,-4,136,0,0,0,0,0,0,0,0,0,0,0,
0,0,132,-97,-1876,-16,34,-6,134,0,0,0,0,0,0,0,0,0,0,0,
0,0,141,-104,-1880,-17,32,-6,129,0,0,0,0,0,0,0,0,0,0,0,
0,0,137,-100,-1884,-17,32,-6,125,0,0,0,0,0,0,0,0,0,0,0,
0,0,136,-92,-1892,-16,33,-6,126,0,0,0,0,0,0,0,0,0,0,0,
0,0,133,-96,-1886,-16,30,-6,122,0,0,0,0,0,0,0,0,0,0,0,
0,0,145,-98,-1879,-17,31,-4,141,0,0,0,0,0,0,0,0,0,0,0,
0,0,142,-99,-1891,-16,34,-4,129,0,0,0,0,0,0,0,0,0,0,0,
0,0,139,-103,-1889,-16,33,-4,123,0,0,0,0,0,0,0,0,0,0,0,
0,0,132,-100,-1892,-16,33,-4,116,0,0,0,0,0,0,0,0,0,0,0,
0,0,134,-94,-1891,-15,32,-6,123,0,0,0,0,0,0,0,0,0,0,0,
0,0,139,-98,-1879,-16,33,-6,136,0,0,0,0,0,0,0,0,0,0,0,
0,0,140,-96,-1872,-16,33,-7,145,0,0,0,0,0,0,0,0,0,0,0,
0,0,140,-97,-1877,-16,35,-4,144,0,0,0,0,0,0,0,0,0,0,0,
0,0,140,-96,-1879,-16,34,-6,140,0,0,0,0,0,0,0,0,0,0,0,
0,0,133,-94,-1890,-16,34,-6,124,0,0,0,0,0,0,0,0,0,0,0,
0,0,130,-98,-1892,-18,33,-4,114,0,0,0,0,0,0,0,0,0,0,0,
0,0,136,-95,-1891,-18,33,-7,121,0,0,0,0,0,0,0,0,0,0,0,
0,0,136,-99,-1883,-18,32,-4,127,0,0,0,0,0,0,0,0,0,0,0,
0,0,132,-96,-1894,-18,33,-6,114,0,0,0,0,0,0,0,0,0,0,0,
0,0,133,-100,-1884,-17,33,-6,122,0,0,0,0,0,0,0,0,0,0,0,
0,0,137,-92,-1902,-16,34,-6,118,0,0,0,0,0,0,0,0,0,0,0,
0,0,134,-86,-1888,-17,34,-7,133,0,0,0,0,0,0,0,0,0,0,0,
0,0,140,-102,-1890,-17,34,-6,122,0,0,0,0,0,0,0,0,0,0,0,
0,0,133,-100,-1896,-17,33,-6,110,0,0,0,0,0,0,0,0,0,0,0,
0,0,139,-93,-1887,-16,33,-3,136,0,0,0,0,0,0,0,0,0,0,0,
0,0,134,-98,-1883,-16,33,-4,129,0,0,0,0,0,0,0,0,0,0,0,
0,0,133,-92,-1882,-15,33,-6,134,0,0,0,0,0,0,0,0,0,0,0,
0,0,131,-97,-1893,-16,34,-6,116,0,0,0,0,0,0,0,0,0,0,0,
0,0,133,-93,-1893,-14,34,-4,126,0,0,0,0,0,0,0,0,0,0,0,
0,0,140,-98,-1894,-14,34,-4,127,0,0,0,0,0,0,0,0,0,0,0,
0,0,151,-97,-1891,-16,33,-4,139,0,0,0,0,0,0,0,0,0,0,0,
0,0,151,-103,-1897,-16,34,-4,128,0,0,0,0,0,0,0,0,0,0,0,
0,0,137,-107,-1893,-15,34,-4,115,0,0,0,0,0,0,0,0,0,0,0,
0,0,134,-98,-1891,-16,33,-6,119,0,0,0,0,0,0,0,0,0,0,0,
0,0,138,-98,-1892,-15,31,-6,121,0,0,0,0,0,0,0,0,0,0,0,
0,0,136,-102,-1894,-14,33,-6,116,0,0,0,0,0,0,0,0,0,0,0,
0,0,136,-97,-1889,-16,33,-6,124,0,0,0,0,0,0,0,0,0,0,0,
0,0,136,-103,-1889,-16,33,-4,120,0,0,0,0,0,0,0,0,0,0,0,
0,0,146,-99,-1882,-16,32,-4,140,0,0,0,0,0,0,0,0,0,0,0,
0,0,129,-100,-1892,-16,33,-6,111,0,0,0,0,0,0,0,0,0,0,0,
0,0,130,-95,-1895,-15,33,-6,115,0,0,0,0,0,0,0,0,0,0,0,
0,0,138,-96,-1888,-16,32,-4,129,0,0,0,0,0,0,0,0,0,0,0,
0,0,135,-103,-1887,-15,33,-6,120,0,0,0,0,0,0,0,0,0,0,0,
0,0,137,-97,-1876,-15,32,-6,138,0,0,0,0,0,0,0,0,0,0,0,
0,0,134,-91,-1890,-17,31,-7,123,0,0,0,0,0,0,0,0,0,0,0,
0,0,135,-96,-1893,-16,31,-7,117,0,0,0,0,0,0,0,0,0,0,0,
0,0,137,-94,-1882,-17,31,-7,131,0,0,0,0,0,0,0,0,0,0,0,
0,0,132,-97,-1888,-16,33,-6,121,0,0,0,0,0,0,0,0,0,0,0,
0,0,143,-100,-1883,-16,34,-6,135,0,0,0,0,0,0,0,0,0,0,0,
0,0,139,-96,-1891,-16,34,-6,127,0,0,0,0,0,0,0,0,0,0,0,
0,0,142,-99,-1888,-17,33,-4,130,0,0,0,0,0,0,0,0,0,0,0,
0,0,143,-94,-1881,-17,32,-6,140,0,0,0,0,0,0,0,0,0,0,0,
0,0,131,-98,-1883,-17,33,-6,123,0,0,0,0,0,0,0,0,0,0,0,
0,0,135,-97,-1889,-16,33,-4,125,0,0,0,0,0,0,0,0,0,0,0,
0,0,135,-95,-1878,-16,34,-4,139,0,0,0,0,0,0,0,0,0,0,0,
0,0,140,-97,-1881,-16,33,-4,138,0,0,0,0,0,0,0,0,0,0,0,
0,0,138,-91,-1890,-16,34,-4,134,0,0,0,0,0,0,0,0,0,0,0,
0,0,134,-94,-1882,-17,35,-4,135,0,0,0,0,0,0,0,0,0,0,0,
0,0,140,-97,-1892,-17,33,-6,124,0,0,0,0,0,0,0,0,0,0,0,
0,0,142,-100,-1897,-16,33,-4,121,0,0,0,0,0,0,0,0,0,0,0,
0,0,131,-97,-1889,-17,32,-6,117,0,0,0,0,0,0,0,0,0,0,0,
0,0,142,-104,-1890,-16,33,-4,124,0,0,0,0,0,0,0,0,0,0,0,
0,0,140,-97,-1892,-16,31,-6,123,0,0,0,0,0,0,0,0,0,0,0,
0,0,133,-93,-1890,-15,32,-7,123,0,0,0,0,0,0,0,0,0,0,0,
0,0,140,-99,-1890,-16,34,-7,125,0,0,0,0,0,0,0,0,0,0,0,
0,0,133,-96,-1902,-16,33,-4,111,0,0,0,0,0,0,0,0,0,0,0,
0,0,139,-96,-1890,-15,33,-6,128,0,0,0,0,0,0,0,0,0,0,0,
0,0,140,-95,-1895,-16,33,-6,124,0,0,0,0,0,0,0,0,0,0,0,
0,0,134,-101,-1880,-17,32,-4,127,0,0,0,0,0,0,0,0,0,0,0,
0,0,140,-101,-1898,-16,34,-6,116,0,0,0,0,0,0,0,0,0,0,0,
0,0,136,-104,-1887,-16,34,-6,120,0,0,0,0,0,0,0,0,0,0,0,
0,0,137,-105,-1883,-16,34,-6,124,0,0,0,0,0,0,0,0,0,0,0,
0,0,139,-103,-1892,-17,35,-4,121,0,0,0,0,0,0,0,0,0,0,0,
0,0,133,-93,-1895,-16,34,-4,122,0,0,0,0,0,0,0,0,0,0,0,
0,0,139,-103,-1904,-16,33,-4,108,0,0,0,0,0,0,0,0,0,0,0,
0,0,133,-100,-1903,-16,34,-4,107,0,0,0,0,0,0,0,0,0,0,0,
0,0,135,-102,-1898,-16,35,-4,113,0,0,0,0,0,0,0,0,0,0,0,
0,0,139,-104,-1901,-16,33,-7,107,0,0,0,0,0,0,0,0,0,0,0,
0,0,133,-89,-1874,-17,33,-6,143,0,0,0,0,0,0,0,0,0,0,0,
0,0,132,-92,-1879,-18,33,-6,133,0,0,0,0,0,0,0,0,0,0,0,
0,0,135,-86,-1896,-16,33,-7,126,0,0,0,0,0,0,0,0,0,0,0,
0,0,133,-94,-1893,-16,32,-6,119,0,0,0,0,0,0,0,0,0,0,0,
0,0,137,-93,-1890,-17,35,-4,131,0,0,0,0,0,0,0,0,0,0,0,
0,0,143,-87,-1893,-15,33,-4,140,0,0,0,0,0,0,0,0,0,0,0,
0,0,143,-90,-1890,-17,34,-6,137,0,0,0,0,0,0,0,0,0,0,0,
0,0,138,-101,-1883,-17,34,-4,130,0,0,0,0,0,0,0,0,0,0,0,
0,0,138,-98,-1896,-15,33,-3,122,0,0,0,0,0,0,0,0,0,0,0,
0,0,135,-86,-1901,-16,33,-4,124,0,0,0,0,0,0,0,0,0,0,0,
0,0,135,-97,-1909,-17,33,-6,102,0,0,0,0,0,0,0,0,0,0,0,
0,0,139,-102,-1880,-17,32,-4,131,0,0,0,0,0,0,0,0,0,0,0,
0,0,138,-97,-1887,-17,32,-6,126,0,0,0,0,0,0,0,0,0,0,0,
0,0,137,-99,-1893,-17,33,-4,120,0,0,0,0,0,0,0,0,0,0,0,
0,0,136,-94,-1889,-16,33,-6,127,0,0,0,0,0,0,0,0,0,0,0,
0,0,136,-93,-1879,-18,33,-6,136,0,0,0,0,0,0,0,0,0,0,0,
0,0,134,-96,-1898,-17,35,-4,117,0,0,0,0,0,0,0,0,0,0,0,
0,0,135,-100,-1891,-17,34,-6,118,0,0,0,0,0,0,0,0,0,0,0,
0,0,135,-104,-1887,-15,33,-6,119,0,0,0,0,0,0,0,0,0,0,0,
0,0,133,-92,-1883,-16,33,-6,132,0,0,0,0,0,0,0,0,0,0,0,
0,0,137,-93,-1892,-16,32,-7,124,0,0,0,0,0,0,0,0,0,0,0,
0,0,142,-98,-1888,-16,31,-4,130,0,0,0,0,0,0,0,0,0,0,0,
0,0,135,-97,-1887,-15,31,-4,126,0,0,0,0,0,0,0,0,0,0,0,
0,0,133,-101,-1903,-15,33,-7,103,0,0,0,0,0,0,0,0,0,0,0,
0,0,138,-96,-1886,-14,34,-7,132,0,0,0,0,0,0,0,0,0,0,0,
0,0,135,-100,-1888,-15,33,-7,121,0,0,0,0,0,0,0,0,0,0,0,
0,0,133,-100,-1887,-15,34,-6,122,0,0,0,0,0,0,0,0,0,0,0,
0,0,137,-103,-1887,-16,34,-6,122,0,0,0,0,0,0,0,0,0,0,0,
0,0,133,-96,-1893,-17,33,-6,117,0,0,0,0,0,0,0,0,0,0,0,
0,0,135,-95,-1888,-17,32,-7,123,0,0,0,0,0,0,0,0,0,0,0,
0,0,137,-95,-1883,-17,33,-7,131,0,0,0,0,0,0,0,0,0,0,0,
0,0,124,-90,-1895,-16,33,-7,112,0,0,0,0,0,0,0,0,0,0,0,
0,0,126,-95,-1893,-18,33,-6,110,0,0,0,0,0,0,0,0,0,0,0,
0,0,131,-97,-1899,-17,32,-7,106,0,0,0,0,0,0,0,0,0,0,0,
0,0,137,-102,-1904,-16,34,-6,106,0,0,0,0,0,0,0,0,0,0,0,
0,0,134,-97,-1892,-16,34,-6,120,0,0,0,0,0,0,0,0,0,0,0,
0,0,134,-89,-1899,-18,34,-4,121,0,0,0,0,0,0,0,0,0,0,0,
0,0,143,-94,-1893,-16,34,-4,133,0,0,0,0,0,0,0,0,0,0,0,
0,0,146,-99,-1895,-16,33,-7,125,0,0,0,0,0,0,0,0,0,0,0,
0,0,137,-96,-1895,-17,32,-6,118,0,0,0,0,0,0,0,0,0,0,0,
0,0,138,-86,-1896,-17,32,-6,128,0,0,0,0,0,0,0,0,0,0,0,
0,0,133,-94,-1897,-17,32,-4,116,0,0,0,0,0,0,0,0,0,0,0,
0,0,130,-100,-1890,-16,32,-4,115,0,0,0,0,0,0,0,0,0,0,0,
0,0,134,-101,-1894,-16,33,-4,115,0,0,0,0,0,0,0,0,0,0,0,
0,0,138,-97,-1894,-16,33,-4,123,0,0,0,0,0,0,0,0,0,0,0,
0,0,132,-101,-1895,-16,32,-4,111,0,0,0,0,0,0,0,0,0,0,0,
0,0,137,-100,-1887,-16,33,-4,126,0,0,0,0,0,0,0,0,0,0,0,
0,0,141,-92,-1883,-16,32,-4,141,0,0,0,0,0,0,0,0,0,0,0,
0,0,138,-96,-1883,-15,32,-4,135,0,0,0,0,0,0,0,0,0,0,0,
0,0,141,-99,-1885,-15,33,-4,134,0,0,0,0,0,0,0,0,0,0,0,
0,0,142,-90,-1899,-15,33,-4,130,0,0,0,0,0,0,0,0,0,0,0,
0,0,149,-92,-1891,-16,33,-4,142,0,0,0,0,0,0,0,0,0,0,0,
0,0,147,-96,-1883,-15,33,-4,145,0,0,0,0,0,0,0,0,0,0,0,
0,0,127,-94,-1885,-16,33,-4,124,0,0,0,0,0,0,0,0,0,0,0,
0,0,136,-97,-1896,-16,32,-6,116,0,0,0,0,0,0,0,0,0,0,0,
0,0,143,-92,-1900,-16,30,-6,122,0,0,0,0,0,0,0,0,0,0,0,
0,0,140,-95,-1880,-15,34,-4,143,0,0,0,0,0,0,0,0,0,0,0,
0,0,136,-103,-1883,-16,34,-6,125,0,0,0,0,0,0,0,0,0,0,0,
0,0,140,-98,-1892,-16,31,-4,124,0,0,0,0,0,0,0,0,0,0,0,
0,0,135,-94,-1889,-17,33,-6,125,0,0,0,0,0,0,0,0,0,0,0,
0,0,136,-100,-1895,-16,33,-6,115,0,0,0,0,0,0,0,0,0,0,0,
0,0,135,-94,-1887,-15,33,-4,131,0,0,0,0,0,0,0,0,0,0,0,
0,0,140,-101,-1896,-16,34,-4,120,0,0,0,0,0,0,0,0,0,0,0,
0,0,139,-100,-1893,-16,34,-6,121,0,0,0,0,0,0,0,0,0,0,0,
0,0,143,-89,-1886,-16,34,-4,145,0,0,0,0,0,0,0,0,0,0,0,
0,0,143,-94,-1879,-16,34,-4,147,0,0,0,0,0,0,0,0,0,0,0,
0,0,136,-95,-1892,-16,33,-6,123,0,0,0,0,0,0,0,0,0,0,0,
0,0,137,-97,-1901,-15,33,-6,114,0,0,0,0,0,0,0,0,0,0,0,
0,0,139,-97,-1883,-17,33,-6,132,0,0,0,0,0,0,0,0,0,0,0,
0,0,145,-97,-1880,-16,33,-7,141,0,0,0,0,0,0,0,0,0,0,0,
0,0,138,-96,-1891,-18,34,-6,124,0,0,0,0,0,0,0,0,0,0,0,
0,0,137,-93,-1882,-17,33,-6,135,0,0,0,0,0,0,0,0,0,0,0,
0,0,132,-101,-1894,-16,33,-4,113,0,0,0,0,0,0,0,0,0,0,0,
0,0,141,-97,-1887,-14,33,-4,135,0,0,0,0,0,0,0,0,0,0,0,
0,0,142,-98,-1884,-13,32,-6,136,0,0,0,0,0,0,0,0,0,0,0,
0,0,135,-106,-1891,-15,31,-6,111,0,0,0,0,0,0,0,0,0,0,0,
0,0,143,-104,-1889,-15,33,-6,125,0,0,0,0,0,0,0,0,0,0,0,
0,0,141,-96,-1892,-15,32,-4,129,0,0,0,0,0,0,0,0,0,0,0,
0,0,142,-95,-1894,-15,33,-4,130,0,0,0,0,0,0,0,0,0,0,0,
0,0,136,-89,-1883,-15,33,-4,141,0,0,0,0,0,0,0,0,0,0,0,
0,0,131,-94,-1888,-15,33,-6,124,0,0,0,0,0,0,0,0,0,0,0,
0,0,138,-92,-1891,-16,34,-4,132,0,0,0,0,0,0,0,0,0,0,0,
0,0,138,-91,-1898,-15,34,-6,125,0,0,0,0,0,0,0,0,0,0,0,
0,0,141,-95,-1888,-17,35,-4,135,0,0,0,0,0,0,0,0,0,0,0,
0,0,143,-95,-1890,-16,35,-7,133,0,0,0,0,0,0,0,0,0,0,0,
0,0,135,-96,-1890,-17,34,-6,123,0,0,0,0,0,0,0,0,0,0,0,
0,0,136,-100,-1893,-17,33,-4,118,0,0,0,0,0,0,0,0,0,0,0,
0,0,141,-98,-1889,-17,33,-4,129,0,0,0,0,0,0,0,0,0,0,0,
0,0,143,-95,-1875,-16,34,-4,150,0,0,0,0,0,0,0,0,0,0,0,
0,0,140,-103,-1886,-17,33,-4,126,0,0,0,0,0,0,0,0,0,0,0,
0,0,139,-97,-1897,-16,33,-6,119,0,0,0,0,0,0,0,0,0,0,0,
0,0,138,-102,-1895,-16,32,-7,113,0,0,0,0,0,0,0,0,0,0,0,
0,0,133,-99,-1890,-16,32,-6,117,0,0,0,0,0,0,0,0,0,0,0,
0,0,131,-94,-1886,-16,34,-4,128,0,0,0,0,0,0,0,0,0,0,0,
0,0,131,-101,-1891,-16,32,-4,114,0,0,0,0,0,0,0,0,0,0,0,
0,0,130,-91,-1896,-16,31,-4,117,0,0,0,0,0,0,0,0,0,0,0,
0,0,135,-89,-1889,-16,32,-7,129,0,0,0,0,0,0,0,0,0,0,0,
0,0,140,-92,-1883,-16,33,-6,139,0,0,0,0,0,0,0,0,0,0,0,
0,0,142,-97,-1885,-16,32,-4,135,0,0,0,0,0,0,0,0,0,0,0,
0,0,135,-97,-1909,-15,33,-4,106,0,0,0,0,0,0,0,0,0,0,0,
0,0,139,-98,-1901,-16,33,-4,116,0,0,0,0,0,0,0,0,0,0,0,
0,0,143,-100,-1897,-17,34,-4,122,0,0,0,0,0,0,0,0,0,0,0,
0,0,140,-95,-1894,-16,35,-4,129,0,0,0,0,0,0,0,0,0,0,0,
0,0,130,-90,-1892,-16,36,-6,125,0,0,0,0,0,0,0,0,0,0,0,
0,0,138,-94,-1900,-16,36,-7,120,0,0,0,0,0,0,0,0,0,0,0,
0,0,137,-109,-1887,-16,34,-7,115,0,0,0,0,0,0,0,0,0,0,0,
0,0,134,-100,-1880,-17,32,-4,128,0,0,0,0,0,0,0,0,0,0,0,
0,0,134,-104,-1885,-17,32,-4,119,0,0,0,0,0,0,0,0,0,0,0,
0,0,133,-100,-1888,-16,33,-4,121,0,0,0,0,0,0,0,0,0,0,0,
0,0,132,-101,-1896,-15,33,-6,110,0,0,0,0,0,0,0,0,0,0,0,
0,0,139,-92,-1892,-15,34,-6,131,0,0,0,0,0,0,0,0,0,0,0,
0,0,140,-93,-1896,-15,33,-4,128,0,0,0,0,0,0,0,0,0,0,0,
0,0,132,-103,-1891,-16,33,-7,111,0,0,0,0,0,0,0,0,0,0,0,
0,0,138,-95,-1889,-16,32,-4,129,0,0,0,0,0,0,0,0,0,0,0,
0,0,144,-95,-1886,-17,33,-4,138,0,0,0,0,0,0,0,0,0,0,0,
0,0,136,-97,-1896,-16,33,-6,117,0,0,0,0,0,0,0,0,0,0,0,
0,0,131,-93,-1892,-16,34,-6,121,0,0,0,0,0,0,0,0,0,0,0,
0,0,137,-89,-1900,-15,33,-4,125,0,0,0,0,0,0,0,0,0,0,0,
0,0,133,-97,-1894,-16,33,-4,118,0,0,0,0,0,0,0,0,0,0,0,
0,0,141,-96,-1891,-16,33,-4,130,0,0,0,0,0,0,0,0,0,0,0,
0,0,137,-100,-1899,-16,33,-6,112,0,0,0,0,0,0,0,0,0,0,0,
0,0,142,-93,-1886,-16,34,-4,140,0,0,0,0,0,0,0,0,0,0,0,
0,0,144,-92,-1896,-16,33,-4,132,0,0,0,0,0,0,0,0,0,0,0,
0,0,134,-95,-1890,-15,32,-6,123,0,0,0,0,0,0,0,0,0,0,0,
0,0,132,-94,-1889,-17,33,-4,124,0,0,0,0,0,0,0,0,0,0,0,
0,0,139,-103,-1882,-16,33,-4,130,0,0,0,0,0,0,0,0,0,0,0,
0,0,133,-100,-1887,-16,34,-6,121,0,0,0,0,0,0,0,0,0,0,0,
0,0,134,-93,-1889,-16,31,-6,124,0,0,0,0,0,0,0,0,0,0,0,
0,0,143,-99,-1877,-16,32,-4,142,0,0,0,0,0,0,0,0,0,0,0,
0,0,134,-96,-1877,-15,34,-6,137,0,0,0,0,0,0,0,0,0,0,0,
0,0,128,-94,-1883,-16,32,-7,123,0,0,0,0,0,0,0,0,0,0,0,
0,0,134,-100,-1900,-16,32,-8,105,0,0,0,0,0,0,0,0,0,0,0,
0,0,126,-92,-1899,-17,33,-6,108,0,0,0,0,0,0,0,0,0,0,0,
0,0,129,-95,-1890,-16,32,-7,116,0,0,0,0,0,0,0,0,0,0,0,
0,0,137,-90,-1888,-16,33,-4,135,0,0,0,0,0,0,0,0,0,0,0,
0,0,146,-89,-1888,-16,33,-4,145,0,0,0,0,0,0,0,0,0,0,0,
0,0,141,-103,-1892,-15,33,-4,123,0,0,0,0,0,0,0,0,0,0,0,
0,0,136,-101,-1883,-15,32,-4,128,0,0,0,0,0,0,0,0,0,0,0,
0,0,140,-96,-1883,-16,34,-4,138,0,0,0,0,0,0,0,0,0,0,0,
0,0,132,-101,-1889,-17,34,-4,118,0,0,0,0,0,0,0,0,0,0,0,
0,0,146,-98,-1887,-17,34,-4,137,0,0,0,0,0,0,0,0,0,0,0,
0,0,142,-98,-1881,-16,33,-6,137,0,0,0,0,0,0,0,0,0,0,0,
0,0,138,-96,-1885,-15,32,-7,130,0,0,0,0,0,0,0,0,0,0,0,
0,0,139,-90,-1899,-17,30,-6,120,0,0,0,0,0,0,0,0,0,0,0,
0,0,137,-96,-1880,-17,34,-6,135,0,0,0,0,0,0,0,0,0,0,0,
0,0,135,-99,-1882,-15,33,-6,129,0,0,0,0,0,0,0,0,0,0,0,
0,0,140,-100,-1890,-16,33,-4,126,0,0,0,0,0,0,0,0,0,0,0,
0,0,139,-92,-1899,-16,33,-4,124,0,0,0,0,0,0,0,0,0,0,0,
0,0,129,-95,-1893,-15,33,-6,116,0,0,0,0,0,0,0,0,0,0,0,
0,0,136,-95,-1893,-15,32,-4,124,0,0,0,0,0,0,0,0,0,0,0,
0,0,136,-97,-1888,-16,31,-4,125,0,0,0,0,0,0,0,0,0,0,0,
0,0,138,-95,-1898,-16,32,-6,118,0,0,0,0,0,0,0,0,0,0,0,
0,0,140,-96,-1895,-15,31,-4,124,0,0,0,0,0,0,0,0,0,0,0,
0,0,136,-94,-1884,-16,32,-4,133,0,0,0,0,0,0,0,0,0,0,0,
0,0,139,-92,-1886,-15,32,-4,137,0,0,0,0,0,0,0,0,0,0,0,
0,0,137,-96,-1889,-16,32,-4,127,0,0,0,0,0,0,0,0,0,0,0,
0,0,135,-92,-1877,-16,34,-6,141,0,0,0,0,0,0,0,0,0,0,0,
0,0,128,-95,-1886,-16,35,-4,125,0,0,0,0,0,0,0,0,0,0,0,
0,0,134,-91,-1886,-16,33,-6,131,0,0,0,0,0,0,0,0,0,0,0,
0,0,133,-91,-1889,-16,34,-6,128,0,0,0,0,0,0,0,0,0,0,0,
0,0,139,-96,-1892,-16,33,-4,127,0,0,0,0,0,0,0,0,0,0,0,
0,0,143,-102,-1892,-16,34,-4,126,0,0,0,0,0,0,0,0,0,0,0,
0,0,137,-95,-1891,-16,32,-4,126,0,0,0,0,0,0,0,0,0,0,0,
0,0,136,-97,-1899,-16,33,-6,114,0,0,0,0,0,0,0,0,0,0,0,
0,0,147,-97,-1903,-15,32,-4,123,0,0,0,0,0,0,0,0,0,0,0,
0,0,136,-96,-1891,-17,33,-4,124,0,0,0,0,0,0,0,0,0,0,0,
0,0,132,-96,-1891,-17,33,-6,118,0,0,0,0,0,0,0,0,0,0,0,
0,0,142,-97,-1892,-17,33,-4,128,0,0,0,0,0,0,0,0,0,0,0,
0,0,137,-96,-1883,-16,32,-4,133,0,0,0,0,0,0,0,0,0,0,0,
0,0,135,-94,-1889,-16,32,-6,125,0,0,0,0,0,0,0,0,0,0,0,
0,0,141,-91,-1881,-16,32,-4,144,0,0,0,0,0,0,0,0,0,0,0,
0,0,144,-95,-1892,-17,34,-6,131,0,0,0,0,0,0,0,0,0,0,0,
0,0,137,-97,-1884,-16,34,-7,130,0,0,0,0,0,0,0,0,0,0,0,
0,0,136,-99,-1899,-16,31,-4,112,0,0,0,0,0,0,0,0,0,0,0,
0,0,139,-97,-1893,-16,32,-4,124,0,0,0,0,0,0,0,0,0,0,0,
0,0,129,-103,-1887,-15,32,-6,113,0,0,0,0,0,0,0,0,0,0,0,
0,0,130,-99,-1882,-16,32,-6,122,0,0,0,0,0,0,0,0,0,0,0,
0,0,137,-97,-1899,-16,35,-6,117,0,0,0,0,0,0,0,0,0,0,0,
0,0,140,-94,-1896,-16,35,-4,128,0,0,0,0,0,0,0,0,0,0,0,
0,0,135,-93,-1889,-16,33,-6,127,0,0,0,0,0,0,0,0,0,0,0,
0,0,133,-90,-1895,-16,34,-6,123,0,0,0,0,0,0,0,0,0,0,0,
0,0,139,-96,-1889,-15,34,-6,130,0,0,0,0,0,0,0,0,0,0,0,
0,0,134,-99,-1880,-15,33,-4,132,0,0,0,0,0,0,0,0,0,0,0,
0,0,135,-96,-1885,-17,34,-6,128,0,0,0,0,0,0,0,0,0,0,0,
0,0,134,-96,-1893,-17,33,-4,120,0,0,0,0,0,0,0,0,0,0,0,
0,0,133,-92,-1887,-18,34,-4,129,0,0,0,0,0,0,0,0,0,0,0,
0,0,135,-95,-1893,-16,34,-4,124,0,0,0,0,0,0,0,0,0,0,0,
0,0,140,-85,-1882,-15,34,-6,149,0,0,0,0,0,0,0,0,0,0,0,
0,0,135,-92,-1891,-15,32,-6,126,0,0,0,0,0,0,0,0,0,0,0,
0,0,134,-90,-1890,-15,33,-4,131,0,0,0,0,0,0,0,0,0,0,0,
0,0,132,-96,-1882,-16,33,-6,128,0,0,0,0,0,0,0,0,0,0,0,
0,0,139,-95,-1892,-16,34,-6,127,0,0,0,0,0,0,0,0,0,0,0,
0,0,139,-90,-1888,-16,32,-7,133,0,0,0,0,0,0,0,0,0,0,0,
0,0,139,-95,-1890,-16,33,-6,128,0,0,0,0,0,0,0,0,0,0,0,
0,0,140,-95,-1893,-16,34,-6,127,0,0,0,0,0,0,0,0,0,0,0,
0,0,135,-93,-1886,-15,33,-6,131,0,0,0,0,0,0,0,0,0,0,0,
0,0,136,-96,-1889,-17,31,-6,122,0,0,0,0,0,0,0,0,0,0,0,
0,0,127,-91,-1887,-15,32,-7,122,0,0,0,0,0,0,0,0,0,0,0,
0,0,143,-90,-1878,-15,32,-7,148,0,0,0,0,0,0,0,0,0,0,0,
0,0,145,-101,-1895,-15,34,-7,124,0,0,0,0,0,0,0,0,0,0,0,
0,0,136,-91,-1912,-16,34,-7,107,0,0,0,0,0,0,0,0,0,0,0,
0,0,139,-101,-1899,-15,34,-6,115,0,0,0,0,0,0,0,0,0,0,0,
0,0,132,-98,-1886,-16,32,-6,121,0,0,0,0,0,0,0,0,0,0,0,
0,0,135,-93,-1896,-15,32,-6,120,0,0,0,0,0,0,0,0,0,0,0,
0,0,129,-97,-1889,-16,34,-4,120,0,0,0,0,0,0,0,0,0,0,0,
0,0,140,-101,-1887,-16,34,-4,129,0,0,0,0,0,0,0,0,0,0,0,
0,0,141,-108,-1898,-16,34,-7,109,0,0,0,0,0,0,0,0,0,0,0,
0,0,140,-93,-1896,-17,33,-4,126,0,0,0,0,0,0,0,0,0,0,0,
0,0,141,-100,-1893,-17,34,-4,124,0,0,0,0,0,0,0,0,0,0,0,
0,0,135,-104,-1879,-17,33,-4,127,0,0,0,0,0,0,0,0,0,0,0,
0,0,131,-90,-1889,-16,34,-4,129,0,0,0,0,0,0,0,0,0,0,0,
0,0,137,-95,-1889,-15,34,-4,131,0,0,0,0,0,0,0,0,0,0,0,
0,0,144,-103,-1879,-16,34,-4,139,0,0,0,0,0,0,0,0,0,0,0,
0,0,133,-96,-1884,-16,33,-4,129,0,0,0,0,0,0,0,0,0,0,0,
0,0,140,-98,-1894,-16,33,-4,124,0,0,0,0,0,0,0,0,0,0,0,
0,0,135,-97,-1889,-17,33,-6,122,0,0,0,0,0,0,0,0,0,0,0,
0,0,135,-95,-1889,-16,34,-6,126,0,0,0,0,0,0,0,0,0,0,0,
0,0,133,-94,-1883,-16,34,-4,133,0,0,0,0,0,0,0,0,0,0,0,
0,0,134,-99,-1886,-15,33,-4,126,0,0,0,0,0,0,0,0,0,0,0,
0,0,133,-97,-1889,-15,34,-4,125,0,0,0,0,0,0,0,0,0,0,0,
0,0,129,-98,-1892,-15,33,-7,113,0,0,0,0,0,0,0,0,0,0,0,
0,0,140,-93,-1893,-16,33,-6,128,0,0,0,0,0,0,0,0,0,0,0,
0,0,135,-99,-1876,-17,32,-6,132,0,0,0,0,0,0,0,0,0,0,0,
0,0,140,-91,-1889,-16,32,-4,135,0,0,0,0,0,0,0,0,0,0,0,
0,0,147,-92,-1908,-16,35,-6,123,0,0,0,0,0,0,0,0,0,0,0,
0,0,139,-97,-1902,-15,35,-4,119,0,0,0,0,0,0,0,0,0,0,0,
0,0,144,-91,-1892,-15,34,-4,139,0,0,0,0,0,0,0,0,0,0,0,
0,0,144,-97,-1893,-16,33,-4,130,0,0,0,0,0,0,0,0,0,0,0,
0,0,137,-98,-1885,-16,34,-6,129,0,0,0,0,0,0,0,0,0,0,0,
0,0,132,-95,-1889,-16,34,-6,123,0,0,0,0,0,0,0,0,0,0,0,
0,0,145,-81,-1902,-16,34,-6,137,0,0,0,0,0,0,0,0,0,0,0,
0,0,146,-91,-1891,-16,34,-7,138,0,0,0,0,0,0,0,0,0,0,0,
0,0,139,-93,-1888,-15,33,-6,133,0,0,0,0,0,0,0,0,0,0,0,
0,0,134,-98,-1880,-16,33,-6,130,0,0,0,0,0,0,0,0,0,0,0,
0,0,138,-98,-1879,-15,33,-4,138,0,0,0,0,0,0,0,0,0,0,0,
0,0,134,-104,-1883,-16,33,-7,120,0,0,0,0,0,0,0,0,0,0,0,
0,0,127,-99,-1888,-15,33,-4,117,0,0,0,0,0,0,0,0,0,0,0,
0,0,136,-98,-1891,-15,33,-4,124,0,0,0,0,0,0,0,0,0,0,0,
0,0,140,-97,-1891,-15,33,-4,129,0,0,0,0,0,0,0,0,0,0,0,
0,0,134,-104,-1892,-16,33,-6,112,0,0,0,0,0,0,0,0,0,0,0,
0,0,128,-102,-1898,-16,33,-6,102,0,0,0,0,0,0,0,0,0,0,0,
0,0,133,-100,-1894,-16,31,-4,113,0,0,0,0,0,0,0,0,0,0,0,
0,0,144,-94,-1893,-17,34,-4,133,0,0,0,0,0,0,0,0,0,0,0,
0,0,147,-96,-1882,-16,34,-4,146,0,0,0,0,0,0,0,0,0,0,0,
0,0,141,-98,-1883,-17,33,-6,133,0,0,0,0,0,0,0,0,0,0,0,
0,0,138,-106,-1890,-16,34,-6,117,0,0,0,0,0,0,0,0,0,0,0,
0,0,133,-103,-1891,-17,34,-6,113,0,0,0,0,0,0,0,0,0,0,0,
0,0,136,-103,-1888,-17,34,-4,121,0,0,0,0,0,0,0,0,0,0,0,
0,0,142,-92,-1893,-17,33,-6,130,0,0,0,0,0,0,0,0,0,0,0,
0,0,140,-83,-1884,-16,33,-6,147,0,0,0,0,0,0,0,0,0,0,0,
0,0,140,-93,-1886,-16,32,-4,136,0,0,0,0,0,0,0,0,0,0,0,
0,0,132,-93,-1892,-17,33,-6,120,0,0,0,0,0,0,0,0,0,0,0,
0,0,139,-94,-1895,-15,34,-4,128,0,0,0,0,0,0,0,0,0,0,0,
0,0,135,-98,-1892,-16,34,-4,122,0,0,0,0,0,0,0,0,0,0,0,
0,0,141,-94,-1887,-16,33,-6,134,0,0,0,0,0,0,0,0,0,0,0,
0,0,137,-94,-1894,-16,32,-6,122,0,0,0,0,0,0,0,0,0,0,0,
0,0,138,-95,-1888,-16,34,-6,130,0,0,0,0,0,0,0,0,0,0,0,
0,0,129,-95,-1877,-14,33,-4,135,0,0,0,0,0,0,0,0,0,0,0,
0,0,134,-90,-1890,-15,32,-6,128,0,0,0,0,0,0,0,0,0,0,0,
0,0,138,-98,-1891,-16,33,-6,123,0,0,0,0,0,0,0,0,0,0,0,
0,0,134,-92,-1891,-15,33,-4,128,0,0,0,0,0,0,0,0,0,0,0,
0,0,131,-84,-1895,-16,32,-6,125,0,0,0,0,0,0,0,0,0,0,0,
0,0,140,-88,-1883,-17,33,-6,142,0,0,0,0,0,0,0,0,0,0,0,
0,0,138,-94,-1892,-15,32,-6,126,0,0,0,0,0,0,0,0,0,0,0,
0,0,136,-87,-1886,-16,33,-4,139,0,0,0,0,0,0,0,0,0,0,0,
0,0,138,-100,-1887,-16,34,-6,126,0,0,0,0,0,0,0,0,0,0,0,
0,0,138,-100,-1885,-17,35,-6,128,0,0,0,0,0,0,0,0,0,0,0,
0,0,140,-93,-1889,-17,34,-6,132,0,0,0,0,0,0,0,0,0,0,0,
0,0,141,-98,-1891,-17,34,-7,125,0,0,0,0,0,0,0,0,0,0,0,
0,0,142,-92,-1885,-16,34,-4,142,0,0,0,0,0,0,0,0,0,0,0,
0,0,143,-87,-1881,-16,33,-4,151,0,0,0,0,0,0,0,0,0,0,0,
0,0,133,-91,-1902,-16,34,-4,117,0,0,0,0,0,0,0,0,0,0,0,
0,0,137,-95,-1890,-16,34,-4,129,0,0,0,0,0,0,0,0,0,0,0,
0,0,135,-88,-1894,-17,34,-4,129,0,0,0,0,0,0,0,0,0,0,0,
0,0,131,-93,-1894,-16,33,-6,118,0,0,0,0,0,0,0,0,0,0,0,
0,0,136,-97,-1889,-16,34,-6,125,0,0,0,0,0,0,0,0,0,0,0,
0,0,137,-86,-1896,-15,34,-6,131,0,0,0,0,0,0,0,0,0,0,0,
0,0,138,-96,-1889,-15,32,-6,127,0,0,0,0,0,0,0,0,0,0,0,
0,0,136,-99,-1902,-17,32,-4,109,0,0,0,0,0,0,0,0,0,0,0,
0,0,137,-107,-1882,-17,34,-4,124,0,0,0,0,0,0,0,0,0,0,0,
0,0,141,-99,-1874,-16,34,-4,145,0,0,0,0,0,0,0,0,0,0,0,
0,0,137,-92,-1884,-17,34,-4,137,0,0,0,0,0,0,0,0,0,0,0,
0,0,129,-99,-1885,-17,32,-4,119,0,0,0,0,0,0,0,0,0,0,0,
0,0,135,-99,-1887,-15,32,-4,125,0,0,0,0,0,0,0,0,0,0,0,
0,0,130,-95,-1883,-15,34,-4,130,0,0,0,0,0,0,0,0,0,0,0,
0,0,135,-99,-1900,-16,32,-4,111,0,0,0,0,0,0,0,0,0,0,0,
0,0,142,-91,-1890,-17,34,-4,137,0,0,0,0,0,0,0,0,0,0,0,
0,0,146,-104,-1896,-16,32,-4,121,0,0,0,0,0,0,0,0,0,0,0,
0,0,136,-97,-1891,-16,34,-4,125,0,0,0,0,0,0,0,0,0,0,0,
0,0,135,-94,-1882,-15,33,-4,136,0,0,0,0,0,0,0,0,0,0,0,
0,0,133,-89,-1875,-15,32,-6,143,0,0,0,0,0,0,0,0,0,0,0,
0,0,142,-98,-1886,-17,31,-6,129,0,0,0,0,0,0,0,0,0,0,0,
0,0,134,-94,-1884,-18,31,-4,128,0,0,0,0,0,0,0,0,0,0,0,
0,0,133,-83,-1898,-18,32,-6,123,0,0,0,0,0,0,0,0,0,0,0,
0,0,141,-88,-1893,-17,33,-7,132,0,0,0,0,0,0,0,0,0,0,0,
0,0,134,-98,-1888,-15,33,-7,122,0,0,0,0,0,0,0,0,0,0,0,
0,0,142,-92,-1882,-15,33,-6,143,0,0,0,0,0,0,0,0,0,0,0,
0,0,137,-93,-1883,-15,33,-8,134,0,0,0,0,0,0,0,0,0,0,0,
0,0,135,-106,-1891,-16,33,-6,112,0,0,0,0,0,0,0,0,0,0,0,
0,0,142,-99,-1890,-16,33,-6,127,0,0,0,0,0,0,0,0,0,0,0,
0,0,137,-92,-1895,-17,32,-4,124,0,0,0,0,0,0,0,0,0,0,0,
0,0,142,-88,-1904,-17,33,-6,123,0,0,0,0,0,0,0,0,0,0,0,
0,0,136,-99,-1896,-16,35,-6,117,0,0,0,0,0,0,0,0,0,0,0,
0,0,137,-101,-1887,-15,34,-6,125,0,0,0,0,0,0,0,0,0,0,0,
0,0,135,-98,-1898,-16,34,-7,113,0,0,0,0,0,0,0,0,0,0,0,
0,0,135,-95,-1894,-17,33,-6,119,0,0,0,0,0,0,0,0,0,0,0,
0,0,136,-96,-1889,-17,32,-4,125,0,0,0,0,0,0,0,0,0,0,0,
0,0,134,-97,-1887,-16,34,-4,127,0,0,0,0,0,0,0,0,0,0,0,
0,0,132,-94,-1888,-16,34,-4,127,0,0,0,0,0,0,0,0,0,0,0,
0,0,133,-97,-1892,-17,33,-6,117,0,0,0,0,0,0,0,0,0,0,0,
0,0,133,-90,-1889,-16,33,-6,128,0,0,0,0,0,0,0,0,0,0,0,
0,0,138,-94,-1896,-17,33,-6,121,0,0,0,0,0,0,0,0,0,0,0,
0,0,139,-94,-1889,-18,33,-7,127,0,0,0,0,0,0,0,0,0,0,0,
0,0,135,-95,-1892,-16,33,-6,122,0,0,0,0,0,0,0,0,0,0,0,
0,0,140,-95,-1885,-16,33,-6,134,0,0,0,0,0,0,0,0,0,0,0,
0,0,137,-96,-1883,-15,33,-4,135,0,0,0,0,0,0,0,0,0,0,0,
0,0,139,-96,-1901,-16,32,-4,117,0,0,0,0,0,0,0,0,0,0,0,
0,0,138,-94,-1888,-16,33,-4,132,0,0,0,0,0,0,0,0,0,0,0,
0,0,138,-96,-1897,-16,35,-7,120,0,0,0,0,0,0,0,0,0,0,0,
0,0,129,-97,-1889,-17,34,-7,116,0,0,0,0,0,0,0,0,0,0,0,
0,0,134,-94,-1893,-15,33,-6,122,0,0,0,0,0,0,0,0,0,0,0,
0,0,132,-89,-1898,-16,32,-4,120,0,0,0,0,0,0,0,0,0,0,0,
0,0,143,-94,-1899,-15,33,-6,125,0,0,0,0,0,0,0,0,0,0,0,
0,0,141,-97,-1894,-15,34,-4,128,0,0,0,0,0,0,0,0,0,0,0,
0,0,134,-95,-1903,-17,33,-6,109,0,0,0,0,0,0,0,0,0,0,0,
0,0,138,-94,-1912,-16,33,-4,108,0,0,0,0,0,0,0,0,0,0,0,
0,0,141,-93,-1900,-16,33,-4,124,0,0,0,0,0,0,0,0,0,0,0,
0,0,138,-93,-1889,-16,32,-4,131,0,0,0,0,0,0,0,0,0,0,0,
0,0,130,-91,-1889,-14,33,-7,125,0,0,0,0,0,0,0,0,0,0,0,
0,0,128,-91,-1897,-14,34,-4,119,0,0,0,0,0,0,0,0,0,0,0,
0,0,132,-97,-1893,-15,33,-6,117,0,0,0,0,0,0,0,0,0,0,0,
0,0,135,-92,-1882,-16,34,-6,136,0,0,0,0,0,0,0,0,0,0,0,
0,0,140,-94,-1894,-16,34,-6,127,0,0,0,0,0,0,0,0,0,0,0,
0,0,139,-88,-1897,-16,33,-6,128,0,0,0,0,0,0,0,0,0,0,0,
0,0,142,-92,-1900,-16,34,-6,125,0,0,0,0,0,0,0,0,0,0,0,
0,0,130,-92,-1885,-15,33,-6,128,0,0,0,0,0,0,0,0,0,0,0,
0,0,137,-104,-1889,-16,32,-7,116,0,0,0,0,0,0,0,0,0,0,0,
0,0,142,-97,-1885,-17,33,-4,135,0,0,0,0,0,0,0,0,0,0,0,
0,0,142,-95,-1902,-18,32,-4,118,0,0,0,0,0,0,0,0,0,0,0,
0,0,137,-88,-1891,-17,33,-6,131,0,0,0,0,0,0,0,0,0,0,0,
0,0,141,-97,-1899,-16,34,-6,120,0,0,0,0,0,0,0,0,0,0,0,
0,0,139,-94,-1892,-16,35,-6,129,0,0,0,0,0,0,0,0,0,0,0,
0,0,136,-103,-1891,-16,34,-6,117,0,0,0,0,0,0,0,0,0,0,0,
0,0,142,-96,-1891,-16,33,-6,129,0,0,0,0,0,0,0,0,0,0,0,
0,0,145,-97,-1891,-17,34,-4,133,0,0,0,0,0,0,0,0,0,0,0,
0,0,138,-93,-1888,-16,33,-4,133,0,0,0,0,0,0,0,0,0,0,0,
0,0,143,-92,-1897,-17,33,-4,129,0,0,0,0,0,0,0,0,0,0,0,
0,0,143,-97,-1888,-15,31,-6,131,0,0,0,0,0,0,0,0,0,0,0,
0,0,139,-98,-1886,-15,32,-6,129,0,0,0,0,0,0,0,0,0,0,0,
0,0,138,-95,-1886,-16,31,-4,131,0,0,0,0,0,0,0,0,0,0,0,
0,0,139,-100,-1883,-18,32,-4,129,0,0,0,0,0,0,0,0,0,0,0,
0,0,139,-95,-1882,-17,33,-4,137,0,0,0,0,0,0,0,0,0,0,0,
0,0,134,-95,-1884,-16,32,-4,130,0,0,0,0,0,0,0,0,0,0,0,
0,0,129,-96,-1883,-16,34,-6,125,0,0,0,0,0,0,0,0,0,0,0,
0,0,135,-102,-1884,-16,34,-6,124,0,0,0,0,0,0,0,0,0,0,0,
0,0,133,-97,-1897,-17,33,-4,114,0,0,0,0,0,0,0,0,0,0,0,
0,0,136,-96,-1881,-17,33,-4,134,0,0,0,0,0,0,0,0,0,0,0,
0,0,139,-94,-1877,-18,33,-6,140,0,0,0,0,0,0,0,0,0,0,0,
0,0,134,-94,-1892,-16,33,-4,124,0,0,0,0,0,0,0,0,0,0,0,
0,0,135,-96,-1886,-15,32,-6,127,0,0,0,0,0,0,0,0,0,0,0,
0,0,133,-101,-1892,-15,34,-6,116,0,0,0,0,0,0,0,0,0,0,0,
0,0,135,-100,-1890,-15,34,-7,120,0,0,0,0,0,0,0,0,0,0,0,
0,0,137,-101,-1897,-16,35,-7,114,0,0,0,0,0,0,0,0,0,0,0,
0,0,133,-100,-1889,-16,34,-6,119,0,0,0,0,0,0,0,0,0,0,0,
0,0,139,-95,-1896,-16,34,-4,125,0,0,0,0,0,0,0,0,0,0,0,
0,0,136,-97,-1897,-15,32,-4,118,0,0,0,0,0,0,0,0,0,0,0,
0,0,133,-92,-1885,-15,33,-4,133,0,0,0,0,0,0,0,0,0,0,0,
0,0,135,-92,-1889,-16,34,-6,129,0,0,0,0,0,0,0,0,0,0,0,
0,0,139,-98,-1889,-17,34,-6,126,0,0,0,0,0,0,0,0,0,0,0,
0,0,132,-91,-1897,-18,33,-4,118,0,0,0,0,0,0,0,0,0,0,0,
0,0,128,-95,-1901,-16,33,-4,108,0,0,0,0,0,0,0,0,0,0,0,
0,0,136,-95,-1896,-15,34,-4,123,0,0,0,0,0,0,0,0,0,0,0,
0,0,140,-98,-1894,-16,35,-4,126,0,0,0,0,0,0,0,0,0,0,0,
0,0,134,-92,-1895,-16,33,-4,123,0,0,0,0,0,0,0,0,0,0,0,
0,0,131,-101,-1893,-16,33,-4,113,0,0,0,0,0,0,0,0,0,0,0,
0,0,140,-96,-1900,-16,35,-6,120,0,0,0,0,0,0,0,0,0,0,0,
0,0,136,-101,-1903,-16,34,-4,109,0,0,0,0,0,0,0,0,0,0,0,
0,0,144,-91,-1884,-17,34,-6,143,0,0,0,0,0,0,0,0,0,0,0,
0,0,139,-90,-1895,-16,33,-4,130,0,0,0,0,0,0,0,0,0,0,0,
0,0,137,-93,-1887,-15,33,-4,134,0,0,0,0,0,0,0,0,0,0,0,
0,0,137,-101,-1886,-15,33,-6,125,0,0,0,0,0,0,0,0,0,0,0,
0,0,138,-95,-1888,-16,31,-6,127,0,0,0,0,0,0,0,0,0,0,0,
0,0,140,-96,-1874,-16,34,-6,145,0,0,0,0,0,0,0,0,0,0,0,
0,0,136,-105,-1872,-17,34,-4,135,0,0,0,0,0,0,0,0,0,0,0,
0,0,133,-99,-1878,-16,34,-4,133,0,0,0,0,0,0,0,0,0,0,0,
0,0,135,-101,-1886,-15,34,-4,126,0,0,0,0,0,0,0,0,0,0,0,
0,0,131,-98,-1889,-15,32,-3,121,0,0,0,0,0,0,0,0,0,0,0,
0,0,139,-97,-1884,-16,33,-4,134,0,0,0,0,0,0,0,0,0,0,0,
0,0,135,-93,-1878,-16,34,-4,141,0,0,0,0,0,0,0,0,0,0,0,
0,0,137,-92,-1884,-15,32,-7,134,0,0,0,0,0,0,0,0,0,0,0,
0,0,142,-90,-1881,-17,32,-6,143,0,0,0,0,0,0,0,0,0,0,0,
0,0,136,-94,-1879,-17,32,-4,137,0,0,0,0,0,0,0,0,0,0,0,
0,0,139,-99,-1899,-16,33,-6,115,0,0,0,0,0,0,0,0,0,0,0,
0,0,136,-99,-1892,-15,34,-7,120,0,0,0,0,0,0,0,0,0,0,0,
0,0,138,-93,-1888,-17,34,-7,130,0,0,0,0,0,0,0,0,0,0,0,
0,0,142,-96,-1892,-16,34,-4,131,0,0,0,0,0,0,0,0,0,0,0,
0,0,144,-100,-1883,-15,34,-4,139,0,0,0,0,0,0,0,0,0,0,0,
0,0,133,-95,-1884,-15,32,-6,128,0,0,0,0,0,0,0,0,0,0,0,
0,0,134,-103,-1881,-16,32,-6,123,0,0,0,0,0,0,0,0,0,0,0,
0,0,138,-101,-1883,-16,34,-6,129,0,0,0,0,0,0,0,0,0,0,0,
0,0,139,-96,-1885,-17,34,-4,134,0,0,0,0,0,0,0,0,0,0,0,
0,0,137,-96,-1890,-16,34,-4,128,0,0,0,0,0,0,0,0,0,0,0,
0,0,134,-97,-1888,-17,33,-4,124,0,0,0,0,0,0,0,0,0,0,0,
0,0,138,-95,-1890,-15,33,-4,130,0,0,0,0,0,0,0,0,0,0,0,
0,0,139,-94,-1891,-15,34,-4,132,0,0,0,0,0,0,0,0,0,0,0,
0,0,141,-106,-1897,-16,33,-4,114,0,0,0,0,0,0,0,0,0,0,0,
0,0,135,-99,-1893,-15,33,-6,118,0,0,0,0,0,0,0,0,0,0,0,
0,0,136,-94,-1892,-16,34,-6,125,0,0,0,0,0,0,0,0,0,0,0,
0,0,144,-97,-1896,-17,33,-7,123,0,0,0,0,0,0,0,0,0,0,0,
0,0,144,-97,-1885,-16,33,-4,138,0,0,0,0,0,0,0,0,0,0,0,
0,0,143,-93,-1880,-15,32,-6,144,0,0,0,0,0,0,0,0,0,0,0,
0,0,136,-100,-1889,-16,33,-4,123,0,0,0,0,0,0,0,0,0,0,0,
0,0,143,-101,-1897,-16,31,-6,117,0,0,0,0,0,0,0,0,0,0,0,
0,0,141,-102,-1894,-16,32,-6,118,0,0,0,0,0,0,0,0,0,0,0,
0,0,147,-97,-1892,-16,33,-6,132,0,0,0,0,0,0,0,0,0,0,0,
0,0,135,-93,-1886,-16,32,-4,131,0,0,0,0,0,0,0,0,0,0,0,
0,0,132,-92,-1893,-15,32,-4,123,0,0,0,0,0,0,0,0,0,0,0,
0,0,137,-100,-1891,-15,32,-4,122,0,0,0,0,0,0,0,0,0,0,0,
0,0,139,-98,-1893,-16,33,-4,124,0,0,0,0,0,0,0,0,0,0,0,
0,0,139,-95,-1888,-17,32,-4,130,0,0,0,0,0,0,0,0,0,0,0,
0,0,137,-100,-1899,-16,33,-4,114,0,0,0,0,0,0,0,0,0,0,0,
0,0,130,-93,-1903,-16,33,-4,110,0,0,0,0,0,0,0,0,0,0,0,
0,0,132,-94,-1896,-16,31,-6,114,0,0,0,0,0,0,0,0,0,0,0,
0,0,133,-86,-1889,-16,33,-7,131,0,0,0,0,0,0,0,0,0,0,0,
0,0,142,-87,-1882,-14,33,-6,149,0,0,0,0,0,0,0,0,0,0,0,
0,0,137,-97,-1891,-16,33,-6,123,0,0,0,0,0,0,0,0,0,0,0,
0,0,134,-100,-1891,-16,33,-7,116,0,0,0,0,0,0,0,0,0,0,0,
0,0,142,-97,-1898,-17,35,-4,124,0,0,0,0,0,0,0,0,0,0,0,
0,0,135,-95,-1897,-16,34,-4,120,0,0,0,0,0,0,0,0,0,0,0,
0,0,137,-98,-1893,-15,33,-6,121,0,0,0,0,0,0,0,0,0,0,0,
0,0,138,-98,-1894,-15,33,-7,120,0,0,0,0,0,0,0,0,0,0,0,
0,0,149,-104,-1882,-15,33,-6,138,0,0,0,0,0,0,0,0,0,0,0,
0,0,145,-98,-1883,-16,33,-4,140,0,0,0,0,0,0,0,0,0,0,0,
0,0,144,-99,-1899,-17,33,-4,121,0,0,0,0,0,0,0,0,0,0,0,
0,0,137,-94,-1899,-16,33,-4,120,0,0,0,0,0,0,0,0,0,0,0,
0,0,135,-93,-1891,-17,33,-6,124,0,0,0,0,0,0,0,0,0,0,0,
0,0,132,-94,-1894,-17,35,-7,118,0,0,0,0,0,0,0,0,0,0,0,
0,0,140,-99,-1901,-16,33,-4,116,0,0,0,0,0,0,0,0,0,0,0,
0,0,137,-97,-1894,-17,34,-6,120,0,0,0,0,0,0,0,0,0,0,0,
0,0,135,-96,-1885,-16,31,-4,128,0,0,0,0,0,0,0,0,0,0,0,
0,0,131,-98,-1871,-17,33,-4,137,0,0,0,0,0,0,0,0,0,0,0,
0,0,132,-97,-1882,-17,32,-4,127,0,0,0,0,0,0,0,0,0,0,0,
0,0,140,-97,-1892,-16,33,-6,125,0,0,0,0,0,0,0,0,0,0,0,
0,0,142,-98,-1886,-14,33,-4,136,0,0,0,0,0,0,0,0,0,0,0,
0,0,135,-104,-1894,-16,34,-4,114,0,0,0,0,0,0,0,0,0,0,0,
0,0,138,-98,-1896,-17,34,-4,120,0,0,0,0,0,0,0,0,0,0,0,
0,0,132,-96,-1884,-17,35,-6,127,0,0,0,0,0,0,0,0,0,0,0,
0,0,137,-92,-1889,-16,34,-6,131,0,0,0,0,0,0,0,0,0,0,0,
0,0,136,-99,-1895,-15,34,-4,120,0,0,0,0,0,0,0,0,0,0,0,
0,0,132,-100,-1889,-16,33,-4,119,0,0,0,0,0,0,0,0,0,0,0,
0,0,135,-97,-1883,-16,34,-4,132,0,0,0,0,0,0,0,0,0,0,0,
0,0,138,-95,-1899,-16,33,-6,118,0,0,0,0,0,0,0,0,0,0,0,
0,0,140,-94,-1891,-17,35,-4,132,0,0,0,0,0,0,0,0,0,0,0,
0,0,133,-97,-1895,-17,35,-6,116,0,0,0,0,0,0,0,0,0,0,0,
0,0,136,-100,-1893,-17,34,-6,117,0,0,0,0,0,0,0,0,0,0,0,
0,0,133,-98,-1892,-16,34,-4,120,0,0,0,0,0,0,0,0,0,0,0,
0,0,136,-98,-1887,-16,33,-6,125,0,0,0,0,0,0,0,0,0,0,0,
0,0,134,-99,-1889,-16,33,-7,119,0,0,0,0,0,0,0,0,0,0,0,
0,0,135,-89,-1894,-16,31,-6,124,0,0,0,0,0,0,0,0,0,0,0,
0,0,139,-92,-1894,-17,31,-4,126,0,0,0,0,0,0,0,0,0,0,0,
0,0,135,-96,-1895,-17,32,-4,118,0,0,0,0,0,0,0,0,0,0,0,
0,0,141,-97,-1880,-14,32,-6,139,0,0,0,0,0,0,0,0,0,0,0,
0,0,136,-96,-1885,-13,33,-6,132,0,0,0,0,0,0,0,0,0,0,0,
0,0,143,-95,-1879,-15,32,-4,145,0,0,0,0,0,0,0,0,0,0,0,
0,0,135,-100,-1882,-17,32,-6,125,0,0,0,0,0,0,0,0,0,0,0,
0,0,134,-97,-1892,-18,33,-4,119,0,0,0,0,0,0,0,0,0,0,0,
0,0,138,-95,-1896,-16,33,-6,121,0,0,0,0,0,0,0,0,0,0,0,
0,0,139,-94,-1897,-15,33,-7,122,0,0,0,0,0,0,0,0,0,0,0,
0,0,131,-91,-1882,-15,33,-6,133,0,0,0,0,0,0,0,0,0,0,0,
0,0,134,-100,-1885,-13,31,-6,124,0,0,0,0,0,0,0,0,0,0,0,
0,0,129,-101,-1884,-16,33,-7,117,0,0,0,0,0,0,0,0,0,0,0,
0,0,139,-95,-1893,-17,33,-6,124,0,0,0,0,0,0,0,0,0,0,0,
0,0,138,-95,-1889,-16,34,-4,131,0,0,0,0,0,0,0,0,0,0,0,
0,0,141,-90,-1895,-15,34,-6,132,0,0,0,0,0,0,0,0,0,0,0,
0,0,138,-97,-1890,-14,33,-4,129,0,0,0,0,0,0,0,0,0,0,0,
0,0,134,-96,-1895,-16,34,-4,120,0,0,0,0,0,0,0,0,0,0,0,
0,0,133,-90,-1890,-16,33,-6,127,0,0,0,0,0,0,0,0,0,0,0,
0,0,139,-96,-1896,-16,32,-4,122,0,0,0,0,0,0,0,0,0,0,0,
0,0,135,-93,-1887,-16,32,-4,130,0,0,0,0,0,0,0,0,0,0,0,
0,0,133,-91,-1881,-16,33,-4,137,0,0,0,0,0,0,0,0,0,0,0,
0,0,128,-90,-1888,-16,32,-6,123,0,0,0,0,0,0,0,0,0,0,0,
0,0,132,-98,-1890,-15,32,-4,120,0,0,0,0,0,0,0,0,0,0,0,
0,0,134,-100,-1881,-16,33,-4,129,0,0,0,0,0,0,0,0,0,0,0,
0,0,140,-95,-1889,-15,34,-6,132,0,0,0,0,0,0,0,0,0,0,0,
0,0,140,-88,-1889,-17,32,-6,135,0,0,0,0,0,0,0,0,0,0,0,
0,0,134,-94,-1886,-15,32,-4,130,0,0,0,0,0,0,0,0,0,0,0,
0,0,139,-91,-1889,-15,31,-4,134,0,0,0,0,0,0,0,0,0,0,0,
0,0,135,-92,-1887,-16,34,-4,133,0,0,0,0,0,0,0,0,0,0,0,
0,0,139,-94,-1887,-17,34,-4,134,0,0,0,0,0,0,0,0,0,0,0,
0,0,143,-95,-1895,-17,33,-6,126,0,0,0,0,0,0,0,0,0,0,0,
0,0,141,-92,-1899,-17,31,-7,120,0,0,0,0,0,0,0,0,0,0,0,
0,0,134,-89,-1886,-18,32,-4,132,0,0,0,0,0,0,0,0,0,0,0,
0,0,143,-93,-1875,-15,32,-4,151,0,0,0,0,0,0,0,0,0,0,0,
0,0,134,-93,-1878,-15,33,-4,140,0,0,0,0,0,0,0,0,0,0,0,
0,0,132,-91,-1897,-16,35,-6,120,0,0,0,0,0,0,0,0,0,0,0,
0,0,136,-95,-1896,-16,34,-6,120,0,0,0,0,0,0,0,0,0,0,0,
0,0,136,-101,-1889,-17,33,-7,118,0,0,0,0,0,0,0,0,0,0,0,
0,0,138,-95,-1904,-17,33,-6,112,0,0,0,0,0,0,0,0,0,0,0,
0,0,136,-98,-1902,-16,33,-4,112,0,0,0,0,0,0,0,0,0,0,0,
0,0,133,-100,-1904,-16,32,-6,102,0,0,0,0,0,0,0,0,0,0,0,
0,0,137,-96,-1891,-17,33,-4,125,0,0,0,0,0,0,0,0,0,0,0,
0,0,139,-99,-1900,-17,33,-7,112,0,0,0,0,0,0,0,0,0,0,0,
0,0,139,-98,-1895,-17,34,-6,120,0,0,0,0,0,0,0,0,0,0,0,
