1,2,3,4,5,6,7,8,9,10,11,12,13,14,15,16,17,18,19,20,
UserData_20,Frame ID£º0x01,FC_ACC_X,FC_ACC_Y,FC_ACC_Z,FC_GYR_X,FC_GYR_Y,FC_GYR_Z,FC_STA_Shock,Frame ID£º0x02,FC_MAG_X,FC_MAG_Y,FC_MAG_Z,FC_ALT_BAR,FC_SenserTMP,FC_STA_BAR,FC_STA_MAG,Frame ID£º0x03,FC_ATT_ROL,FC_ATT_PIT,
0,0,-52,2044,82,-8,-17,6,193,0,0,0,0,0,0,0,0,0,0,0,
0,0,-51,2039,82,-10,-20,5,183,0,0,0,0,0,0,0,0,0,0,0,
0,0,-46,2032,79,-6,-18,8,187,0,0,0,0,0,0,0,0,0,0,0,
0,0,-53,2045,75,-6,-18,8,189,0,0,0,0,0,0,0,0,0,0,0,
0,0,-50,2041,80,-7,-19,9,192,0,0,0,0,0,0,0,0,0,0,0,
0,0,-51,2044,66,-7,-16,6,180,0,0,0,0,0,0,0,0,0,0,0,
0,0,-55,2034,79,-12,-20,3,167,0,0,0,0,0,0,0,0,0,0,0,
0,0,-47,2035,65,-7,-18,4,170,0,0,0,0,0,0,0,0,0,0,0,
0,0,-57,2047,81,-9,-21,8,187,0,0,0,0,0,0,0,0,0,0,0,
0,0,-57,2047,81,-9,-21,8,187,0,0,0,0,0,0,0,0,0,0,0,
0,0,-55,2041,75,-7,-20,7,179,0,0,0,0,0,0,0,0,0,0,0,
0,0,-50,2044,73,-10,-20,4,179,0,0,0,0,0,0,0,0,0,0,0,
0,0,-52,2040,80,-9,-19,5,183,0,0,0,0,0,0,0,0,0,0,0,
0,0,-50,2039,80,-10,-19,4,182,0,0,0,0,0,0,0,0,0,0,0,
0,0,-52,2035,83,-5,-18,3,184,0,0,0,0,0,0,0,0,0,0,0,
0,0,-52,2035,83,-12,-21,4,175,0,0,0,0,0,0,0,0,0,0,0,
0,0,-49,2042,79,-8,-22,7,187,0,0,0,0,0,0,0,0,0,0,0,
0,0,-50,2043,80,-9,-17,4,189,0,0,0,0,0,0,0,0,0,0,0,
0,0,-52,2040,82,-10,-18,6,186,0,0,0,0,0,0,0,0,0,0,0,
0,0,-52,2040,82,-7,-18,5,188,0,0,0,0,0,0,0,0,0,0,0,
0,0,-54,2037,78,-5,-16,6,184,0,0,0,0,0,0,0,0,0,0,0,
0,0,-45,2041,80,-10,-16,7,195,0,0,0,0,0,0,0,0,0,0,0,
0,0,-57,2040,80,-10,-16,6,181,0,0,0,0,0,0,0,0,0,0,0,
0,0,-50,2041,85,-7,-17,10,200,0,0,0,0,0,0,0,0,0,0,0,
0,0,-47,2046,73,-7,-17,7,193,0,0,0,0,0,0,0,0,0,0,0,
0,0,-52,2037,72,-5,-15,9,184,0,0,0,0,0,0,0,0,0,0,0,
0,0,-50,2040,78,-5,-21,6,186,0,0,0,0,0,0,0,0,0,0,0,
0,0,-46,2042,80,-8,-17,3,192,0,0,0,0,0,0,0,0,0,0,0,
0,0,-47,2040,77,-6,-20,4,186,0,0,0,0,0,0,0,0,0,0,0,
0,0,-53,2037,77,-9,-18,2,174,0,0,0,0,0,0,0,0,0,0,0,
0,0,-48,2043,75,-9,-18,2,183,0,0,0,0,0,0,0,0,0,0,0,
0,0,-44,2048,82,-10,-18,8,205,0,0,0,0,0,0,0,0,0,0,0,
0,0,-54,2044,72,-10,-18,5,177,0,0,0,0,0,0,0,0,0,0,0,
0,0,-44,2035,80,-10,-21,7,185,0,0,0,0,0,0,0,0,0,0,0,
0,0,-53,2038,73,-12,-20,6,170,0,0,0,0,0,0,0,0,0,0,0,
0,0,-44,2039,82,-7,-19,8,197,0,0,0,0,0,0,0,0,0,0,0,
0,0,-46,2048,84,-7,-19,4,203,0,0,0,0,0,0,0,0,0,0,0,
0,0,-56,2041,76,-8,-16,9,184,0,0,0,0,0,0,0,0,0,0,0,
0,0,-52,2042,80,-6,-22,3,183,0,0,0,0,0,0,0,0,0,0,0,
0,0,-51,2043,78,-8,-18,4,186,0,0,0,0,0,0,0,0,0,0,0,
0,0,-60,2040,79,-8,-19,6,176,0,0,0,0,0,0,0,0,0,0,0,
0,0,-53,2040,74,-8,-20,7,178,0,0,0,0,0,0,0,0,0,0,0,
0,0,-48,2038,71,-12,-18,8,177,0,0,0,0,0,0,0,0,0,0,0,
0,0,-54,2035,79,-8,-19,6,177,0,0,0,0,0,0,0,0,0,0,0,
0,0,-51,2035,86,-11,-14,4,187,0,0,0,0,0,0,0,0,0,0,0,
0,0,-50,2042,83,-9,-18,6,192,0,0,0,0,0,0,0,0,0,0,0,
0,0,-45,2044,80,-9,-15,4,197,0,0,0,0,0,0,0,0,0,0,0,
0,0,-57,2038,70,-6,-20,4,167,0,0,0,0,0,0,0,0,0,0,0,
0,0,-49,2037,75,-11,-18,2,174,0,0,0,0,0,0,0,0,0,0,0,
0,0,-46,2040,83,-8,-19,4,192,0,0,0,0,0,0,0,0,0,0,0,
0,0,-47,2034,84,-12,-18,6,185,0,0,0,0,0,0,0,0,0,0,0,
0,0,-51,2038,74,-7,-18,7,181,0,0,0,0,0,0,0,0,0,0,0,
0,0,-53,2042,78,-9,-17,9,188,0,0,0,0,0,0,0,0,0,0,0,
0,0,-46,2034,76,-9,-19,6,180,0,0,0,0,0,0,0,0,0,0,0,
0,0,-52,2039,81,-8,-20,3,181,0,0,0,0,0,0,0,0,0,0,0,
0,0,-52,2041,84,-7,-18,4,190,0,0,0,0,0,0,0,0,0,0,0,
0,0,-51,2038,77,-5,-17,9,189,0,0,0,0,0,0,0,0,0,0,0,
0,0,-48,2039,72,-11,-22,6,174,0,0,0,0,0,0,0,0,0,0,0,
0,0,-50,2034,77,-8,-17,3,177,0,0,0,0,0,0,0,0,0,0,0,
0,0,-53,2046,79,-9,-20,7,188,0,0,0,0,0,0,0,0,0,0,0,
0,0,-56,2042,72,-9,-18,5,174,0,0,0,0,0,0,0,0,0,0,0,
0,0,-57,2041,80,-8,-18,2,178,0,0,0,0,0,0,0,0,0,0,0,
0,0,-54,2037,76,-9,-17,3,174,0,0,0,0,0,0,0,0,0,0,0,
0,0,-51,2044,77,-7,-19,6,188,0,0,0,0,0,0,0,0,0,0,0,
0,0,-51,2041,81,-8,-19,8,190,0,0,0,0,0,0,0,0,0,0,0,
0,0,-47,2041,76,-7,-20,5,186,0,0,0,0,0,0,0,0,0,0,0,
0,0,-53,2038,73,-9,-19,6,174,0,0,0,0,0,0,0,0,0,0,0,
0,0,-48,2036,77,-6,-19,5,183,0,0,0,0,0,0,0,0,0,0,0,
0,0,-49,2041,82,-4,-18,8,198,0,0,0,0,0,0,0,0,0,0,0,
0,0,-49,2034,79,-9,-18,4,179,0,0,0,0,0,0,0,0,0,0,0,
0,0,-48,2040,77,-7,-19,1,182,0,0,0,0,0,0,0,0,0,0,0,
0,0,-47,2042,77,-9,-19,4,186,0,0,0,0,0,0,0,0,0,0,0,
0,0,-50,2037,82,-6,-18,5,188,0,0,0,0,0,0,0,0,0,0,0,
0,0,-50,2038,74,-7,-16,3,180,0,0,0,0,0,0,0,0,0,0,0,
0,0,-52,2037,84,-11,-18,7,185,0,0,0,0,0,0,0,0,0,0,0,
0,0,-49,2043,73,-10,-18,7,184,0,0,0,0,0,0,0,0,0,0,0,
0,0,-45,2043,81,-6,-18,6,199,0,0,0,0,0,0,0,0,0,0,0,
0,0,-47,2036,76,-10,-20,2,175,0,0,0,0,0,0,0,0,0,0,0,
0,0,-48,2040,82,-9,-17,6,192,0,0,0,0,0,0,0,0,0,0,0,
0,0,-53,2035,75,-7,-21,6,173,0,0,0,0,0,0,0,0,0,0,0,
0,0,-48,2046,83,-9,-17,5,198,0,0,0,0,0,0,0,0,0,0,0,
0,0,-49,2042,86,-9,-18,3,193,0,0,0,0,0,0,0,0,0,0,0,
0,0,-56,2029,78,-7,-17,7,172,0,0,0,0,0,0,0,0,0,0,0,
0,0,-53,2037,74,-9,-19,3,171,0,0,0,0,0,0,0,0,0,0,0,
0,0,-51,2046,79,-5,-16,4,195,0,0,0,0,0,0,0,0,0,0,0,
0,0,-40,2036,79,-5,-18,3,193,0,0,0,0,0,0,0,0,0,0,0,
0,0,-51,2040,74,-9,-16,6,182,0,0,0,0,0,0,0,0,0,0,0,
0,0,-50,2041,79,-8,-18,5,187,0,0,0,0,0,0,0,0,0,0,0,
0,0,-51,2041,78,-7,-18,5,186,0,0,0,0,0,0,0,0,0,0,0,
0,0,-52,2048,80,-8,-20,2,189,0,0,0,0,0,0,0,0,0,0,0,
0,0,-47,2038,76,-5,-17,10,193,0,0,0,0,0,0,0,0,0,0,0,
0,0,-51,2041,79,-10,-18,6,185,0,0,0,0,0,0,0,0,0,0,0,
0,0,-47,2037,82,-9,-17,5,189,0,0,0,0,0,0,0,0,0,0,0,
0,0,-53,2039,84,-6,-18,6,190,0,0,0,0,0,0,0,0,0,0,0,
0,0,-51,2038,85,-8,-18,4,188,0,0,0,0,0,0,0,0,0,0,0,
0,0,-53,2045,76,-5,-17,7,191,0,0,0,0,0,0,0,0,0,0,0,
0,0,-47,2039,84,-9,-19,9,195,0,0,0,0,0,0,0,0,0,0,0,
0,0,-52,2038,80,-8,-18,7,185,0,0,0,0,0,0,0,0,0,0,0,
0,0,-54,2043,73,-8,-19,6,179,0,0,0,0,0,0,0,0,0,0,0,
0,0,-51,2037,80,-11,-18,6,181,0,0,0,0,0,0,0,0,0,0,0,
0,0,-48,2046,83,-5,-18,7,203,0,0,0,0,0,0,0,0,0,0,0,
0,0,-51,2040,77,-7,-22,6,181,0,0,0,0,0,0,0,0,0,0,0,
0,0,-50,2041,82,-5,-21,6,191,0,0,0,0,0,0,0,0,0,0,0,
0,0,-47,2041,80,-7,-17,6,194,0,0,0,0,0,0,0,0,0,0,0,
0,0,-53,2045,83,-10,-17,6,192,0,0,0,0,0,0,0,0,0,0,0,
0,0,-49,2037,77,-7,-20,5,181,0,0,0,0,0,0,0,0,0,0,0,
0,0,-54,2043,81,-9,-17,6,188,0,0,0,0,0,0,0,0,0,0,0,
0,0,-54,2042,74,-9,-20,8,179,0,0,0,0,0,0,0,0,0,0,0,
0,0,-52,2042,73,-8,-19,8,182,0,0,0,0,0,0,0,0,0,0,0,
0,0,-49,2038,82,-7,-19,5,188,0,0,0,0,0,0,0,0,0,0,0,
0,0,-49,2038,75,-8,-19,9,184,0,0,0,0,0,0,0,0,0,0,0,
0,0,-50,2038,82,-9,-18,4,185,0,0,0,0,0,0,0,0,0,0,0,
0,0,-50,2040,83,-9,-19,7,190,0,0,0,0,0,0,0,0,0,0,0,
0,0,-51,2038,91,-10,-16,5,195,0,0,0,0,0,0,0,0,0,0,0,
0,0,-47,2035,76,-11,-17,5,179,0,0,0,0,0,0,0,0,0,0,0,
0,0,-51,2042,79,-12,-16,7,187,0,0,0,0,0,0,0,0,0,0,0,
0,0,-52,2038,75,-12,-21,8,174,0,0,0,0,0,0,0,0,0,0,0,
0,0,-43,2040,73,-7,-18,8,191,0,0,0,0,0,0,0,0,0,0,0,
0,0,-43,2040,73,-7,-18,8,191,0,0,0,0,0,0,0,0,0,0,0,
0,0,-54,2035,71,-8,-20,6,168,0,0,0,0,0,0,0,0,0,0,0,
0,0,-56,2040,77,-12,-19,2,170,0,0,0,0,0,0,0,0,0,0,0,
0,0,-49,2043,77,-9,-19,5,186,0,0,0,0,0,0,0,0,0,0,0,
0,0,-49,2043,77,-9,-19,5,186,0,0,0,0,0,0,0,0,0,0,0,
0,0,-50,2036,84,-9,-17,4,186,0,0,0,0,0,0,0,0,0,0,0,
0,0,-61,2038,79,-11,-17,5,171,0,0,0,0,0,0,0,0,0,0,0,
0,0,-52,2040,75,-8,-19,7,181,0,0,0,0,0,0,0,0,0,0,0,
0,0,-48,2046,79,-8,-16,6,197,0,0,0,0,0,0,0,0,0,0,0,
0,0,-49,2038,80,-9,-18,5,185,0,0,0,0,0,0,0,0,0,0,0,
0,0,-49,2038,80,-10,-17,2,182,0,0,0,0,0,0,0,0,0,0,0,
0,0,-49,2037,83,-9,-18,7,189,0,0,0,0,0,0,0,0,0,0,0,
0,0,-49,2037,76,-9,-17,5,181,0,0,0,0,0,0,0,0,0,0,0,
0,0,-47,2036,73,-6,-20,7,181,0,0,0,0,0,0,0,0,0,0,0,
0,0,-50,2038,80,-7,-18,6,187,0,0,0,0,0,0,0,0,0,0,0,
0,0,-56,2038,83,-10,-17,7,183,0,0,0,0,0,0,0,0,0,0,0,
0,0,-52,2034,81,-8,-17,4,180,0,0,0,0,0,0,0,0,0,0,0,
0,0,-56,2040,89,-7,-20,7,191,0,0,0,0,0,0,0,0,0,0,0,
0,0,-56,2040,89,-7,-20,7,191,0,0,0,0,0,0,0,0,0,0,0,
0,0,-55,2051,74,-11,-21,4,181,0,0,0,0,0,0,0,0,0,0,0,
0,0,-56,2038,77,-5,-18,10,184,0,0,0,0,0,0,0,0,0,0,0,
0,0,-56,2044,84,-11,-20,5,184,0,0,0,0,0,0,0,0,0,0,0,
0,0,-50,2034,76,-10,-17,6,177,0,0,0,0,0,0,0,0,0,0,0,
0,0,-49,2038,76,-7,-19,6,183,0,0,0,0,0,0,0,0,0,0,0,
0,0,-57,2035,79,-10,-18,4,171,0,0,0,0,0,0,0,0,0,0,0,
0,0,-50,2039,75,-6,-16,5,185,0,0,0,0,0,0,0,0,0,0,0,
0,0,-50,2039,79,-9,-17,5,185,0,0,0,0,0,0,0,0,0,0,0,
0,0,-48,2034,78,-9,-19,6,180,0,0,0,0,0,0,0,0,0,0,0,
0,0,-47,2038,81,-9,-23,8,186,0,0,0,0,0,0,0,0,0,0,0,
0,0,-53,2041,77,-7,-18,8,186,0,0,0,0,0,0,0,0,0,0,0,
0,0,-51,2038,75,-6,-17,5,182,0,0,0,0,0,0,0,0,0,0,0,
0,0,-58,2040,80,-9,-17,6,180,0,0,0,0,0,0,0,0,0,0,0,
0,0,-48,2038,78,-12,-18,7,183,0,0,0,0,0,0,0,0,0,0,0,
0,0,-48,2046,74,-9,-18,5,188,0,0,0,0,0,0,0,0,0,0,0,
0,0,-48,2045,80,-10,-17,6,194,0,0,0,0,0,0,0,0,0,0,0,
0,0,-51,2038,80,-8,-18,8,187,0,0,0,0,0,0,0,0,0,0,0,
0,0,-52,2032,73,-8,-17,7,173,0,0,0,0,0,0,0,0,0,0,0,
0,0,-40,2047,76,-9,-18,4,198,0,0,0,0,0,0,0,0,0,0,0,
0,0,-48,2037,81,-10,-18,3,183,0,0,0,0,0,0,0,0,0,0,0,
0,0,-56,2045,80,-10,-18,7,186,0,0,0,0,0,0,0,0,0,0,0,
0,0,-51,2037,82,-10,-21,5,180,0,0,0,0,0,0,0,0,0,0,0,
0,0,-57,2041,81,-7,-18,2,180,0,0,0,0,0,0,0,0,0,0,0,
0,0,-55,2040,80,-10,-15,7,185,0,0,0,0,0,0,0,0,0,0,0,
0,0,-54,2041,76,-6,-19,5,181,0,0,0,0,0,0,0,0,0,0,0,
0,0,-47,2041,79,-8,-17,7,193,0,0,0,0,0,0,0,0,0,0,0,
0,0,-44,2036,79,-7,-18,5,189,0,0,0,0,0,0,0,0,0,0,0,
0,0,-49,2044,80,-11,-18,1,185,0,0,0,0,0,0,0,0,0,0,0,
0,0,-41,2030,77,-11,-20,7,180,0,0,0,0,0,0,0,0,0,0,0,
0,0,-49,2046,79,-6,-19,7,196,0,0,0,0,0,0,0,0,0,0,0,
0,0,-54,2038,79,-9,-16,5,181,0,0,0,0,0,0,0,0,0,0,0,
0,0,-42,2044,79,-8,-20,4,195,0,0,0,0,0,0,0,0,0,0,0,
0,0,-45,2034,80,-8,-20,7,186,0,0,0,0,0,0,0,0,0,0,0,
0,0,-51,2037,74,-8,-17,5,178,0,0,0,0,0,0,0,0,0,0,0,
0,0,-49,2041,79,-11,-21,5,182,0,0,0,0,0,0,0,0,0,0,0,
0,0,-51,2037,69,-10,-18,4,169,0,0,0,0,0,0,0,0,0,0,0,
0,0,-44,2036,77,-9,-19,6,185,0,0,0,0,0,0,0,0,0,0,0,
0,0,-50,2037,69,-7,-19,8,176,0,0,0,0,0,0,0,0,0,0,0,
0,0,-55,2038,76,-5,-19,7,180,0,0,0,0,0,0,0,0,0,0,0,
0,0,-45,2040,81,-9,-21,7,191,0,0,0,0,0,0,0,0,0,0,0,
0,0,-54,2046,83,-8,-19,3,189,0,0,0,0,0,0,0,0,0,0,0,
0,0,-54,2046,79,-6,-20,6,189,0,0,0,0,0,0,0,0,0,0,0,
0,0,-56,2043,83,-10,-21,4,181,0,0,0,0,0,0,0,0,0,0,0,
0,0,-49,2038,85,-8,-17,7,194,0,0,0,0,0,0,0,0,0,0,0,
0,0,-49,2042,81,-11,-18,4,187,0,0,0,0,0,0,0,0,0,0,0,
0,0,-49,2047,82,-7,-15,9,205,0,0,0,0,0,0,0,0,0,0,0,
0,0,-55,2039,82,-9,-16,1,180,0,0,0,0,0,0,0,0,0,0,0,
0,0,-47,2040,80,-11,-19,6,187,0,0,0,0,0,0,0,0,0,0,0,
0,0,-50,2042,74,-7,-17,7,187,0,0,0,0,0,0,0,0,0,0,0,
0,0,-47,2043,87,-8,-21,5,197,0,0,0,0,0,0,0,0,0,0,0,
0,0,-52,2042,78,-11,-19,6,182,0,0,0,0,0,0,0,0,0,0,0,
0,0,-45,2038,80,-6,-20,6,191,0,0,0,0,0,0,0,0,0,0,0,
0,0,-46,2045,79,-7,-18,6,197,0,0,0,0,0,0,0,0,0,0,0,
0,0,-52,2042,75,-11,-16,5,181,0,0,0,0,0,0,0,0,0,0,0,
0,0,-53,2041,79,-9,-22,4,178,0,0,0,0,0,0,0,0,0,0,0,
0,0,-56,2034,76,-5,-17,8,178,0,0,0,0,0,0,0,0,0,0,0,
0,0,-47,2036,76,-9,-15,6,185,0,0,0,0,0,0,0,0,0,0,0,
0,0,-54,2045,82,-5,-17,6,195,0,0,0,0,0,0,0,0,0,0,0,
0,0,-53,2035,73,-13,-21,6,165,0,0,0,0,0,0,0,0,0,0,0,
0,0,-54,2035,79,-9,-19,4,174,0,0,0,0,0,0,0,0,0,0,0,
0,0,-48,2037,84,-9,-15,7,194,0,0,0,0,0,0,0,0,0,0,0,
0,0,-59,2041,71,-6,-17,4,172,0,0,0,0,0,0,0,0,0,0,0,
0,0,-51,2042,83,-10,-17,-2,182,0,0,0,0,0,0,0,0,0,0,0,
0,0,-49,2040,79,-9,-16,6,189,0,0,0,0,0,0,0,0,0,0,0,
0,0,-57,2036,74,-9,-19,5,168,0,0,0,0,0,0,0,0,0,0,0,
0,0,-50,2039,79,-8,-20,5,183,0,0,0,0,0,0,0,0,0,0,0,
0,0,-51,2039,77,-8,-15,10,190,0,0,0,0,0,0,0,0,0,0,0,
0,0,-59,2036,79,-7,-17,6,176,0,0,0,0,0,0,0,0,0,0,0,
0,0,-47,2036,82,-9,-17,4,187,0,0,0,0,0,0,0,0,0,0,0,
0,0,-47,2038,78,-8,-19,4,184,0,0,0,0,0,0,0,0,0,0,0,
0,0,-56,2044,81,-6,-16,5,190,0,0,0,0,0,0,0,0,0,0,0,
0,0,-55,2046,77,-7,-20,5,184,0,0,0,0,0,0,0,0,0,0,0,
0,0,-52,2037,75,-8,-17,6,179,0,0,0,0,0,0,0,0,0,0,0,
0,0,-43,2040,73,-9,-20,4,183,0,0,0,0,0,0,0,0,0,0,0,
0,0,-56,2036,76,-5,-19,9,179,0,0,0,0,0,0,0,0,0,0,0,
0,0,-58,2037,78,-9,-16,9,179,0,0,0,0,0,0,0,0,0,0,0,
0,0,-52,2039,81,-8,-20,6,184,0,0,0,0,0,0,0,0,0,0,0,
0,0,-54,2041,78,-11,-20,6,178,0,0,0,0,0,0,0,0,0,0,0,
0,0,-53,2043,72,-10,-17,4,177,0,0,0,0,0,0,0,0,0,0,0,
0,0,-51,2038,85,-10,-18,7,189,0,0,0,0,0,0,0,0,0,0,0,
0,0,-52,2040,75,-5,-16,7,187,0,0,0,0,0,0,0,0,0,0,0,
0,0,-49,2038,78,-6,-19,7,187,0,0,0,0,0,0,0,0,0,0,0,
0,0,-48,2042,77,-7,-18,8,192,0,0,0,0,0,0,0,0,0,0,0,
0,0,-50,2043,81,-7,-18,8,195,0,0,0,0,0,0,0,0,0,0,0,
0,0,-53,2035,69,-9,-19,4,165,0,0,0,0,0,0,0,0,0,0,0,
0,0,-51,2043,74,-6,-18,6,186,0,0,0,0,0,0,0,0,0,0,0,
0,0,-49,2041,77,-9,-18,3,183,0,0,0,0,0,0,0,0,0,0,0,
0,0,-56,2037,80,-8,-17,6,180,0,0,0,0,0,0,0,0,0,0,0,
0,0,-53,2039,81,-10,-21,5,179,0,0,0,0,0,0,0,0,0,0,0,
0,0,-44,2039,68,-6,-19,5,181,0,0,0,0,0,0,0,0,0,0,0,
0,0,-50,2034,83,-6,-19,4,184,0,0,0,0,0,0,0,0,0,0,0,
0,0,-50,2034,83,-6,-19,4,184,0,0,0,0,0,0,0,0,0,0,0,
0,0,-50,2042,86,-6,-15,6,201,0,0,0,0,0,0,0,0,0,0,0,
0,0,-56,2033,81,-9,-16,3,174,0,0,0,0,0,0,0,0,0,0,0,
0,0,-55,2041,75,-4,-20,6,181,0,0,0,0,0,0,0,0,0,0,0,
0,0,-55,2041,75,-4,-20,6,181,0,0,0,0,0,0,0,0,0,0,0,
0,0,-53,2041,77,-4,-18,7,188,0,0,0,0,0,0,0,0,0,0,0,
0,0,-47,2041,79,-8,-18,6,191,0,0,0,0,0,0,0,0,0,0,0,
0,0,-51,2037,78,-9,-16,3,180,0,0,0,0,0,0,0,0,0,0,0,
0,0,-48,2036,76,-8,-21,7,180,0,0,0,0,0,0,0,0,0,0,0,
0,0,-52,2039,72,-7,-15,4,179,0,0,0,0,0,0,0,0,0,0,0,
0,0,-52,2039,72,-12,-17,6,174,0,0,0,0,0,0,0,0,0,0,0,
0,0,-50,2038,80,-12,-18,5,181,0,0,0,0,0,0,0,0,0,0,0,
0,0,-42,2042,83,-10,-17,6,200,0,0,0,0,0,0,0,0,0,0,0,
0,0,-50,2037,76,-10,-19,5,177,0,0,0,0,0,0,0,0,0,0,0,
0,0,-52,2039,76,-9,-19,4,177,0,0,0,0,0,0,0,0,0,0,0,
0,0,-51,2040,77,-10,-19,6,181,0,0,0,0,0,0,0,0,0,0,0,
0,0,-52,2037,86,-7,-16,9,195,0,0,0,0,0,0,0,0,0,0,0,
0,0,-54,2038,78,-11,-18,4,175,0,0,0,0,0,0,0,0,0,0,0,
0,0,-52,2042,83,-8,-19,8,192,0,0,0,0,0,0,0,0,0,0,0,
0,0,-55,2035,83,-7,-21,3,176,0,0,0,0,0,0,0,0,0,0,0,
0,0,-51,2037,81,-12,-19,4,178,0,0,0,0,0,0,0,0,0,0,0,
0,0,-46,2038,79,-10,-19,4,184,0,0,0,0,0,0,0,0,0,0,0,
0,0,-51,2036,78,-6,-21,5,179,0,0,0,0,0,0,0,0,0,0,0,
0,0,-48,2040,75,-10,-19,5,181,0,0,0,0,0,0,0,0,0,0,0,
0,0,-52,2043,75,-12,-17,5,180,0,0,0,0,0,0,0,0,0,0,0,
0,0,-46,2041,74,-9,-17,6,187,0,0,0,0,0,0,0,0,0,0,0,
0,0,-49,2042,74,-7,-17,9,190,0,0,0,0,0,0,0,0,0,0,0,
0,0,-51,2040,79,-4,-18,6,190,0,0,0,0,0,0,0,0,0,0,0,
0,0,-45,2043,76,-6,-18,5,193,0,0,0,0,0,0,0,0,0,0,0,
0,0,-48,2041,73,-6,-17,5,186,0,0,0,0,0,0,0,0,0,0,0,
0,0,-45,2040,73,-6,-19,6,187,0,0,0,0,0,0,0,0,0,0,0,
0,0,-54,2047,78,-8,-15,7,193,0,0,0,0,0,0,0,0,0,0,0,
0,0,-51,2040,80,-9,-19,5,184,0,0,0,0,0,0,0,0,0,0,0,
0,0,-49,2036,82,-7,-16,1,185,0,0,0,0,0,0,0,0,0,0,0,
0,0,-51,2036,79,-6,-19,4,181,0,0,0,0,0,0,0,0,0,0,0,
0,0,-55,2040,76,-8,-16,8,183,0,0,0,0,0,0,0,0,0,0,0,
0,0,-47,2043,73,-13,-18,7,183,0,0,0,0,0,0,0,0,0,0,0,
0,0,-47,2037,85,-8,-19,5,191,0,0,0,0,0,0,0,0,0,0,0,
0,0,-48,2041,77,-10,-17,4,185,0,0,0,0,0,0,0,0,0,0,0,
0,0,-47,2032,76,-9,-18,11,183,0,0,0,0,0,0,0,0,0,0,0,
0,0,-46,2043,87,-10,-18,5,199,0,0,0,0,0,0,0,0,0,0,0,
0,0,-48,2038,73,-6,-18,4,181,0,0,0,0,0,0,0,0,0,0,0,
0,0,-50,2042,78,-10,-21,4,181,0,0,0,0,0,0,0,0,0,0,0,
0,0,-53,2037,77,-8,-20,7,178,0,0,0,0,0,0,0,0,0,0,0,
0,0,-54,2046,80,-5,-19,5,191,0,0,0,0,0,0,0,0,0,0,0,
0,0,-49,2037,74,-9,-19,5,177,0,0,0,0,0,0,0,0,0,0,0,
0,0,-56,2040,76,-8,-17,5,178,0,0,0,0,0,0,0,0,0,0,0,
0,0,-51,2037,72,-9,-18,3,172,0,0,0,0,0,0,0,0,0,0,0,
0,0,-52,2040,81,-6,-13,7,195,0,0,0,0,0,0,0,0,0,0,0,
0,0,-54,2047,84,-8,-17,5,195,0,0,0,0,0,0,0,0,0,0,0,
0,0,-47,2041,82,-7,-19,5,193,0,0,0,0,0,0,0,0,0,0,0,
0,0,-53,2043,81,-9,-17,5,188,0,0,0,0,0,0,0,0,0,0,0,
0,0,-46,2049,79,-7,-19,2,197,0,0,0,0,0,0,0,0,0,0,0,
0,0,-57,2042,78,-10,-18,7,180,0,0,0,0,0,0,0,0,0,0,0,
0,0,-52,2042,80,-9,-19,8,188,0,0,0,0,0,0,0,0,0,0,0,
0,0,-49,2041,77,-9,-19,4,183,0,0,0,0,0,0,0,0,0,0,0,
0,0,-46,2034,75,-9,-19,6,179,0,0,0,0,0,0,0,0,0,0,0,
0,0,-49,2039,76,-6,-17,4,185,0,0,0,0,0,0,0,0,0,0,0,
0,0,-57,2035,72,-8,-18,5,167,0,0,0,0,0,0,0,0,0,0,0,
0,0,-44,2048,80,-9,-22,7,199,0,0,0,0,0,0,0,0,0,0,0,
0,0,-52,2042,81,-10,-16,1,184,0,0,0,0,0,0,0,0,0,0,0,
0,0,-52,2036,76,-6,-20,7,179,0,0,0,0,0,0,0,0,0,0,0,
0,0,-52,2039,83,-10,-19,5,184,0,0,0,0,0,0,0,0,0,0,0,
0,0,-55,2039,77,-10,-20,3,172,0,0,0,0,0,0,0,0,0,0,0,
0,0,-52,2040,76,-9,-18,4,179,0,0,0,0,0,0,0,0,0,0,0,
0,0,-45,2036,81,-10,-19,5,186,0,0,0,0,0,0,0,0,0,0,0,
0,0,-48,2034,76,-9,-18,6,179,0,0,0,0,0,0,0,0,0,0,0,
0,0,-48,2040,72,-7,-19,4,180,0,0,0,0,0,0,0,0,0,0,0,
0,0,-49,2035,75,-10,-17,2,174,0,0,0,0,0,0,0,0,0,0,0,
0,0,-53,2041,77,-8,-20,9,184,0,0,0,0,0,0,0,0,0,0,0,
0,0,-53,2045,81,-10,-21,8,188,0,0,0,0,0,0,0,0,0,0,0,
0,0,-49,2037,82,-10,-18,4,184,0,0,0,0,0,0,0,0,0,0,0,
0,0,-45,2037,78,-6,-17,8,193,0,0,0,0,0,0,0,0,0,0,0,
0,0,-52,2036,82,-5,-19,7,187,0,0,0,0,0,0,0,0,0,0,0,
0,0,-52,2042,73,-6,-20,5,180,0,0,0,0,0,0,0,0,0,0,0,
0,0,-54,2037,76,-10,-17,4,174,0,0,0,0,0,0,0,0,0,0,0,
0,0,-47,2041,84,-8,-18,6,196,0,0,0,0,0,0,0,0,0,0,0,
0,0,-49,2034,85,-9,-17,7,189,0,0,0,0,0,0,0,0,0,0,0,
0,0,-52,2040,83,-10,-20,8,187,0,0,0,0,0,0,0,0,0,0,0,
0,0,-52,2040,78,-11,-18,1,176,0,0,0,0,0,0,0,0,0,0,0,
0,0,-53,2039,79,-8,-17,7,185,0,0,0,0,0,0,0,0,0,0,0,
0,0,-59,2034,77,-5,-22,4,167,0,0,0,0,0,0,0,0,0,0,0,
0,0,-50,2037,77,-14,-18,8,178,0,0,0,0,0,0,0,0,0,0,0,
0,0,-58,2042,76,-5,-16,3,180,0,0,0,0,0,0,0,0,0,0,0,
0,0,-46,2047,76,-13,-21,5,186,0,0,0,0,0,0,0,0,0,0,0,
0,0,-47,2044,74,-10,-19,8,188,0,0,0,0,0,0,0,0,0,0,0,
0,0,-51,2042,76,-8,-21,6,182,0,0,0,0,0,0,0,0,0,0,0,
0,0,-58,2045,76,-10,-19,1,173,0,0,0,0,0,0,0,0,0,0,0,
0,0,-53,2032,79,-7,-18,6,177,0,0,0,0,0,0,0,0,0,0,0,
0,0,-53,2038,81,-8,-20,6,182,0,0,0,0,0,0,0,0,0,0,0,
0,0,-48,2041,82,-5,-18,4,194,0,0,0,0,0,0,0,0,0,0,0,
0,0,-54,2040,76,-10,-20,6,176,0,0,0,0,0,0,0,0,0,0,0,
0,0,-52,2048,78,-8,-19,5,191,0,0,0,0,0,0,0,0,0,0,0,
0,0,-48,2039,76,-10,-20,7,182,0,0,0,0,0,0,0,0,0,0,0,
0,0,-52,2044,77,-8,-20,5,184,0,0,0,0,0,0,0,0,0,0,0,
0,0,-52,2042,76,-7,-18,6,185,0,0,0,0,0,0,0,0,0,0,0,
0,0,-41,2032,70,-12,-19,7,175,0,0,0,0,0,0,0,0,0,0,0,
0,0,-49,2043,78,-8,-15,6,193,0,0,0,0,0,0,0,0,0,0,0,
0,0,-51,2038,84,-10,-18,4,185,0,0,0,0,0,0,0,0,0,0,0,
0,0,-53,2034,80,-9,-18,3,175,0,0,0,0,0,0,0,0,0,0,0,
0,0,-50,2029,77,-6,-18,2,172,0,0,0,0,0,0,0,0,0,0,0,
0,0,-53,2039,76,-7,-19,10,184,0,0,0,0,0,0,0,0,0,0,0,
0,0,-51,2043,73,-9,-18,5,181,0,0,0,0,0,0,0,0,0,0,0,
0,0,-50,2044,80,-9,-18,3,188,0,0,0,0,0,0,0,0,0,0,0,
0,0,-53,2041,69,-8,-15,9,181,0,0,0,0,0,0,0,0,0,0,0,
0,0,-50,2038,82,-9,-19,9,189,0,0,0,0,0,0,0,0,0,0,0,
0,0,-50,2051,72,-9,-17,6,192,0,0,0,0,0,0,0,0,0,0,0,
0,0,-49,2040,83,-8,-17,8,195,0,0,0,0,0,0,0,0,0,0,0,
0,0,-50,2034,73,-4,-20,5,176,0,0,0,0,0,0,0,0,0,0,0,
0,0,-61,2042,73,-4,-20,5,173,0,0,0,0,0,0,0,0,0,0,0,
0,0,-61,2042,73,-8,-17,4,171,0,0,0,0,0,0,0,0,0,0,0,
0,0,-53,2038,78,-8,-15,3,181,0,0,0,0,0,0,0,0,0,0,0,
0,0,-53,2044,76,-7,-16,6,188,0,0,0,0,0,0,0,0,0,0,0,
0,0,-45,2039,84,-10,-18,5,193,0,0,0,0,0,0,0,0,0,0,0,
0,0,-45,2039,84,-7,-16,4,197,0,0,0,0,0,0,0,0,0,0,0,
0,0,-48,2041,77,-9,-19,7,187,0,0,0,0,0,0,0,0,0,0,0,
0,0,-51,2042,77,-10,-18,7,185,0,0,0,0,0,0,0,0,0,0,0,
0,0,-49,2039,86,-8,-19,5,192,0,0,0,0,0,0,0,0,0,0,0,
0,0,-49,2039,86,-8,-20,4,190,0,0,0,0,0,0,0,0,0,0,0,
0,0,-51,2040,79,-9,-22,5,180,0,0,0,0,0,0,0,0,0,0,0,
0,0,-55,2032,75,-7,-18,5,170,0,0,0,0,0,0,0,0,0,0,0,
0,0,-52,2040,82,-9,-18,5,186,0,0,0,0,0,0,0,0,0,0,0,
0,0,-50,2039,78,-9,-19,5,182,0,0,0,0,0,0,0,0,0,0,0,
0,0,-54,2040,81,-9,-21,4,179,0,0,0,0,0,0,0,0,0,0,0,
0,0,-54,2035,78,-9,-19,13,182,0,0,0,0,0,0,0,0,0,0,0,
0,0,-58,2038,75,-6,-18,5,174,0,0,0,0,0,0,0,0,0,0,0,
0,0,-47,2039,80,-9,-16,6,191,0,0,0,0,0,0,0,0,0,0,0,
0,0,-51,2044,79,-11,-18,5,186,0,0,0,0,0,0,0,0,0,0,0,
0,0,-46,2043,79,-6,-19,6,195,0,0,0,0,0,0,0,0,0,0,0,
0,0,-48,2042,77,-9,-18,5,187,0,0,0,0,0,0,0,0,0,0,0,
0,0,-51,2042,79,-8,-17,5,188,0,0,0,0,0,0,0,0,0,0,0,
0,0,-55,2044,73,-9,-17,4,178,0,0,0,0,0,0,0,0,0,0,0,
0,0,-51,2040,76,-12,-21,6,176,0,0,0,0,0,0,0,0,0,0,0,
0,0,-50,2037,84,-8,-19,6,188,0,0,0,0,0,0,0,0,0,0,0,
0,0,-50,2038,79,-10,-18,7,184,0,0,0,0,0,0,0,0,0,0,0,
0,0,-42,2039,79,-8,-20,5,191,0,0,0,0,0,0,0,0,0,0,0,
0,0,-45,2040,67,-5,-22,9,182,0,0,0,0,0,0,0,0,0,0,0,
0,0,-49,2035,80,-8,-18,5,183,0,0,0,0,0,0,0,0,0,0,0,
0,0,-53,2044,83,-7,-18,3,190,0,0,0,0,0,0,0,0,0,0,0,
0,0,-48,2037,77,-7,-20,7,184,0,0,0,0,0,0,0,0,0,0,0,
0,0,-44,2037,80,-8,-19,6,190,0,0,0,0,0,0,0,0,0,0,0,
0,0,-51,2042,81,-9,-18,5,188,0,0,0,0,0,0,0,0,0,0,0,
0,0,-53,2037,83,-10,-15,3,183,0,0,0,0,0,0,0,0,0,0,0,
0,0,-53,2040,79,-8,-22,6,180,0,0,0,0,0,0,0,0,0,0,0,
0,0,-51,2039,81,-13,-17,4,181,0,0,0,0,0,0,0,0,0,0,0,
0,0,-53,2039,75,-10,-19,3,173,0,0,0,0,0,0,0,0,0,0,0,
0,0,-54,2043,78,-8,-18,7,186,0,0,0,0,0,0,0,0,0,0,0,
0,0,-52,2032,76,-10,-14,8,178,0,0,0,0,0,0,0,0,0,0,0,
0,0,-47,2037,81,-8,-21,10,190,0,0,0,0,0,0,0,0,0,0,0,
0,0,-48,2039,75,-8,-19,5,182,0,0,0,0,0,0,0,0,0,0,0,
0,0,-53,2041,78,-7,-18,5,184,0,0,0,0,0,0,0,0,0,0,0,
0,0,-54,2039,85,-3,-16,7,196,0,0,0,0,0,0,0,0,0,0,0,
0,0,-45,2044,77,-9,-15,6,196,0,0,0,0,0,0,0,0,0,0,0,
0,0,-53,2038,74,-7,-20,5,175,0,0,0,0,0,0,0,0,0,0,0,
0,0,-44,2038,79,-3,-19,4,193,0,0,0,0,0,0,0,0,0,0,0,
0,0,-54,2041,76,-9,-19,3,176,0,0,0,0,0,0,0,0,0,0,0,
0,0,-54,2038,79,-7,-17,6,183,0,0,0,0,0,0,0,0,0,0,0,
0,0,-49,2039,76,-7,-18,3,182,0,0,0,0,0,0,0,0,0,0,0,
0,0,-49,2043,85,-8,-21,9,197,0,0,0,0,0,0,0,0,0,0,0,
0,0,-58,2040,77,-7,-17,7,180,0,0,0,0,0,0,0,0,0,0,0,
0,0,-49,2041,76,-6,-20,2,182,0,0,0,0,0,0,0,0,0,0,0,
0,0,-53,2039,76,-5,-15,8,188,0,0,0,0,0,0,0,0,0,0,0,
0,0,-50,2046,84,-9,-19,8,198,0,0,0,0,0,0,0,0,0,0,0,
0,0,-50,2037,81,-10,-19,8,185,0,0,0,0,0,0,0,0,0,0,0,
0,0,-50,2033,78,-7,-19,11,184,0,0,0,0,0,0,0,0,0,0,0,
0,0,-53,2045,83,-7,-19,5,192,0,0,0,0,0,0,0,0,0,0,0,
0,0,-48,2036,74,-7,-16,7,184,0,0,0,0,0,0,0,0,0,0,0,
0,0,-49,2037,78,-11,-18,9,184,0,0,0,0,0,0,0,0,0,0,0,
0,0,-50,2030,74,-11,-17,4,168,0,0,0,0,0,0,0,0,0,0,0,
0,0,-52,2038,74,-9,-17,1,173,0,0,0,0,0,0,0,0,0,0,0,
0,0,-50,2045,77,-8,-21,2,183,0,0,0,0,0,0,0,0,0,0,0,
0,0,-53,2034,81,-7,-17,5,181,0,0,0,0,0,0,0,0,0,0,0,
0,0,-49,2040,84,-5,-19,7,196,0,0,0,0,0,0,0,0,0,0,0,
0,0,-52,2044,77,-11,-15,7,188,0,0,0,0,0,0,0,0,0,0,0,
0,0,-48,2042,79,-9,-16,6,192,0,0,0,0,0,0,0,0,0,0,0,
0,0,-51,2038,79,-12,-19,6,179,0,0,0,0,0,0,0,0,0,0,0,
0,0,-53,2040,78,-6,-21,7,183,0,0,0,0,0,0,0,0,0,0,0,
0,0,-48,2036,72,-9,-17,4,176,0,0,0,0,0,0,0,0,0,0,0,
0,0,-52,2040,89,-8,-17,5,195,0,0,0,0,0,0,0,0,0,0,0,
0,0,-51,2045,74,-9,-20,6,183,0,0,0,0,0,0,0,0,0,0,0,
0,0,-51,2043,83,-10,-20,5,188,0,0,0,0,0,0,0,0,0,0,0,
0,0,-49,2038,83,-10,-16,7,191,0,0,0,0,0,0,0,0,0,0,0,
0,0,-46,2039,76,-9,-19,7,186,0,0,0,0,0,0,0,0,0,0,0,
0,0,-54,2031,81,-8,-18,6,176,0,0,0,0,0,0,0,0,0,0,0,
0,0,-52,2040,79,-5,-20,5,185,0,0,0,0,0,0,0,0,0,0,0,
0,0,-52,2040,77,-5,-20,5,183,0,0,0,0,0,0,0,0,0,0,0,
0,0,-55,2035,80,-12,-17,4,173,0,0,0,0,0,0,0,0,0,0,0,
0,0,-49,2041,75,-6,-19,7,187,0,0,0,0,0,0,0,0,0,0,0,
0,0,-54,2038,80,-10,-14,5,183,0,0,0,0,0,0,0,0,0,0,0,
0,0,-50,2041,72,-8,-21,6,178,0,0,0,0,0,0,0,0,0,0,0,
0,0,-58,2040,79,-10,-20,8,177,0,0,0,0,0,0,0,0,0,0,0,
0,0,-54,2036,85,-8,-16,7,188,0,0,0,0,0,0,0,0,0,0,0,
0,0,-50,2034,80,-8,-19,8,183,0,0,0,0,0,0,0,0,0,0,0,
0,0,-51,2039,77,-9,-20,4,178,0,0,0,0,0,0,0,0,0,0,0,
0,0,-47,2039,79,-5,-17,8,195,0,0,0,0,0,0,0,0,0,0,0,
0,0,-54,2047,81,-7,-19,3,189,0,0,0,0,0,0,0,0,0,0,0,
0,0,-51,2037,82,-9,-18,7,186,0,0,0,0,0,0,0,0,0,0,0,
0,0,-49,2041,71,-9,-17,6,181,0,0,0,0,0,0,0,0,0,0,0,
0,0,-47,2039,77,-10,-17,8,188,0,0,0,0,0,0,0,0,0,0,0,
0,0,-53,2038,77,-8,-18,5,179,0,0,0,0,0,0,0,0,0,0,0,
0,0,-50,2045,80,-8,-17,6,194,0,0,0,0,0,0,0,0,0,0,0,
0,0,-51,2041,77,-8,-14,4,187,0,0,0,0,0,0,0,0,0,0,0,
0,0,-43,2031,88,-10,-20,4,188,0,0,0,0,0,0,0,0,0,0,0,
0,0,-54,2037,75,-9,-19,5,173,0,0,0,0,0,0,0,0,0,0,0,
0,0,-48,2039,74,-8,-18,4,181,0,0,0,0,0,0,0,0,0,0,0,
0,0,-49,2038,83,-7,-16,6,193,0,0,0,0,0,0,0,0,0,0,0,
0,0,-54,2031,78,-7,-20,7,173,0,0,0,0,0,0,0,0,0,0,0,
0,0,-54,2043,82,-8,-18,8,191,0,0,0,0,0,0,0,0,0,0,0,
0,0,-54,2039,80,-8,-19,6,182,0,0,0,0,0,0,0,0,0,0,0,
0,0,-47,2042,74,-8,-16,6,189,0,0,0,0,0,0,0,0,0,0,0,
0,0,-52,2038,79,-7,-19,6,183,0,0,0,0,0,0,0,0,0,0,0,
0,0,-50,2041,79,-10,-16,2,184,0,0,0,0,0,0,0,0,0,0,0,
0,0,-53,2034,83,-8,-18,4,180,0,0,0,0,0,0,0,0,0,0,0,
0,0,-50,2041,76,-11,-17,6,183,0,0,0,0,0,0,0,0,0,0,0,
0,0,-51,2042,76,-9,-20,5,181,0,0,0,0,0,0,0,0,0,0,0,
0,0,-49,2036,79,-8,-16,7,187,0,0,0,0,0,0,0,0,0,0,0,
0,0,-51,2038,74,-7,-17,8,183,0,0,0,0,0,0,0,0,0,0,0,
0,0,-55,2043,79,-6,-20,7,186,0,0,0,0,0,0,0,0,0,0,0,
0,0,-53,2041,82,-5,-18,6,191,0,0,0,0,0,0,0,0,0,0,0,
0,0,-53,2041,82,-5,-18,6,191,0,0,0,0,0,0,0,0,0,0,0,
0,0,-48,2038,75,-10,-16,4,181,0,0,0,0,0,0,0,0,0,0,0,
0,0,-54,2039,69,-8,-18,8,174,0,0,0,0,0,0,0,0,0,0,0,
0,0,-52,2042,72,-7,-18,8,183,0,0,0,0,0,0,0,0,0,0,0,
0,0,-54,2039,76,-7,-18,8,182,0,0,0,0,0,0,0,0,0,0,0,
0,0,-54,2039,76,-11,-18,4,174,0,0,0,0,0,0,0,0,0,0,0,
0,0,-57,2040,78,-10,-17,7,179,0,0,0,0,0,0,0,0,0,0,0,
0,0,-55,2038,86,-2,-17,5,193,0,0,0,0,0,0,0,0,0,0,0,
0,0,-54,2040,76,-12,-18,5,175,0,0,0,0,0,0,0,0,0,0,0,
0,0,-54,2040,76,-5,-17,5,183,0,0,0,0,0,0,0,0,0,0,0,
0,0,-49,2050,82,-11,-21,3,193,0,0,0,0,0,0,0,0,0,0,0,
0,0,-49,2043,81,-5,-15,12,205,0,0,0,0,0,0,0,0,0,0,0,
0,0,-53,2043,71,-4,-18,4,181,0,0,0,0,0,0,0,0,0,0,0,
0,0,-52,2039,78,-8,-16,4,183,0,0,0,0,0,0,0,0,0,0,0,
0,0,-54,2041,76,-9,-18,4,178,0,0,0,0,0,0,0,0,0,0,0,
0,0,-51,2037,78,-6,-20,12,188,0,0,0,0,0,0,0,0,0,0,0,
0,0,-46,2044,74,-9,-17,3,187,0,0,0,0,0,0,0,0,0,0,0,
0,0,-46,2039,76,-9,-18,4,184,0,0,0,0,0,0,0,0,0,0,0,
0,0,-50,2039,71,-11,-18,8,177,0,0,0,0,0,0,0,0,0,0,0,
0,0,-48,2047,73,-10,-20,5,185,0,0,0,0,0,0,0,0,0,0,0,
0,0,-53,2040,79,-11,-20,7,180,0,0,0,0,0,0,0,0,0,0,0,
0,0,-57,2040,90,-10,-18,7,190,0,0,0,0,0,0,0,0,0,0,0,
0,0,-51,2040,81,-9,-19,5,185,0,0,0,0,0,0,0,0,0,0,0,
0,0,-52,2040,80,-6,-17,6,189,0,0,0,0,0,0,0,0,0,0,0,
0,0,-50,2044,82,-10,-15,7,196,0,0,0,0,0,0,0,0,0,0,0,
0,0,-47,2038,74,-6,-19,3,181,0,0,0,0,0,0,0,0,0,0,0,
0,0,-55,2040,84,-11,-18,6,184,0,0,0,0,0,0,0,0,0,0,0,
0,0,-48,2030,73,-10,-17,6,172,0,0,0,0,0,0,0,0,0,0,0,
0,0,-50,2038,72,-8,-18,4,176,0,0,0,0,0,0,0,0,0,0,0,
0,0,-53,2040,83,-7,-16,4,189,0,0,0,0,0,0,0,0,0,0,0,
0,0,-51,2040,78,-10,-16,5,184,0,0,0,0,0,0,0,0,0,0,0,
0,0,-49,2039,73,-10,-18,5,178,0,0,0,0,0,0,0,0,0,0,0,
0,0,-52,2044,73,-11,-19,5,178,0,0,0,0,0,0,0,0,0,0,0,
0,0,-50,2045,81,-8,-18,6,194,0,0,0,0,0,0,0,0,0,0,0,
0,0,-48,2042,78,-6,-17,8,195,0,0,0,0,0,0,0,0,0,0,0,
0,0,-44,2041,79,-7,-15,7,199,0,0,0,0,0,0,0,0,0,0,0,
0,0,-55,2046,80,-8,-16,3,188,0,0,0,0,0,0,0,0,0,0,0,
0,0,-50,2042,80,-9,-19,3,185,0,0,0,0,0,0,0,0,0,0,0,
0,0,-56,2035,76,-10,-17,5,171,0,0,0,0,0,0,0,0,0,0,0,
0,0,-48,2044,78,-6,-18,7,195,0,0,0,0,0,0,0,0,0,0,0,
0,0,-47,2038,79,-9,-19,7,187,0,0,0,0,0,0,0,0,0,0,0,
0,0,-48,2040,73,-9,-17,6,183,0,0,0,0,0,0,0,0,0,0,0,
0,0,-52,2042,78,-7,-18,6,187,0,0,0,0,0,0,0,0,0,0,0,
0,0,-49,2039,72,-9,-21,4,174,0,0,0,0,0,0,0,0,0,0,0,
0,0,-55,2026,75,-8,-20,8,164,0,0,0,0,0,0,0,0,0,0,0,
0,0,-56,2045,75,-7,-18,7,184,0,0,0,0,0,0,0,0,0,0,0,
0,0,-59,2037,81,-7,-20,6,176,0,0,0,0,0,0,0,0,0,0,0,
0,0,-52,2036,75,-6,-20,6,177,0,0,0,0,0,0,0,0,0,0,0,
0,0,-45,2046,70,-9,-19,5,186,0,0,0,0,0,0,0,0,0,0,0,
0,0,-45,2044,73,-6,-17,5,192,0,0,0,0,0,0,0,0,0,0,0,
0,0,-58,2039,79,-6,-21,4,175,0,0,0,0,0,0,0,0,0,0,0,
0,0,-52,2047,81,-10,-20,7,191,0,0,0,0,0,0,0,0,0,0,0,
0,0,-54,2036,74,-8,-19,7,174,0,0,0,0,0,0,0,0,0,0,0,
0,0,-48,2036,79,-6,-18,7,188,0,0,0,0,0,0,0,0,0,0,0,
0,0,-52,2038,83,-8,-19,4,184,0,0,0,0,0,0,0,0,0,0,0,
0,0,-49,2045,80,-8,-18,9,197,0,0,0,0,0,0,0,0,0,0,0,
0,0,-45,2040,81,-10,-17,3,190,0,0,0,0,0,0,0,0,0,0,0,
0,0,-49,2050,76,-9,-20,6,193,0,0,0,0,0,0,0,0,0,0,0,
0,0,-48,2041,77,-8,-15,4,189,0,0,0,0,0,0,0,0,0,0,0,
0,0,-47,2039,78,-9,-16,6,189,0,0,0,0,0,0,0,0,0,0,0,
0,0,-40,2035,82,-7,-18,5,195,0,0,0,0,0,0,0,0,0,0,0,
0,0,-47,2044,82,-9,-19,4,193,0,0,0,0,0,0,0,0,0,0,0,
0,0,-52,2038,76,-8,-19,4,177,0,0,0,0,0,0,0,0,0,0,0,
0,0,-51,2048,83,-8,-14,9,206,0,0,0,0,0,0,0,0,0,0,0,
0,0,-49,2041,83,-11,-21,6,187,0,0,0,0,0,0,0,0,0,0,0,
0,0,-52,2043,83,-10,-14,6,194,0,0,0,0,0,0,0,0,0,0,0,
0,0,-50,2034,76,-7,-18,6,179,0,0,0,0,0,0,0,0,0,0,0,
0,0,-49,2041,81,-6,-18,7,194,0,0,0,0,0,0,0,0,0,0,0,
0,0,-50,2043,79,-11,-18,1,182,0,0,0,0,0,0,0,0,0,0,0,
0,0,-49,2034,76,-9,-18,7,179,0,0,0,0,0,0,0,0,0,0,0,
0,0,-53,2036,77,-6,-16,6,182,0,0,0,0,0,0,0,0,0,0,0,
0,0,-51,2039,79,-8,-18,2,181,0,0,0,0,0,0,0,0,0,0,0,
0,0,-50,2037,72,-4,-18,6,181,0,0,0,0,0,0,0,0,0,0,0,
0,0,-54,2042,75,-8,-21,7,179,0,0,0,0,0,0,0,0,0,0,0,
0,0,-53,2041,83,-9,-21,7,186,0,0,0,0,0,0,0,0,0,0,0,
0,0,-44,2045,76,-3,-17,12,207,0,0,0,0,0,0,0,0,0,0,0,
0,0,-49,2034,80,-10,-17,5,181,0,0,0,0,0,0,0,0,0,0,0,
0,0,-47,2040,77,-9,-17,5,187,0,0,0,0,0,0,0,0,0,0,0,
0,0,-44,2044,76,-8,-18,9,197,0,0,0,0,0,0,0,0,0,0,0,
0,0,-51,2042,80,-6,-20,7,190,0,0,0,0,0,0,0,0,0,0,0,
0,0,-54,2040,77,-10,-17,4,178,0,0,0,0,0,0,0,0,0,0,0,
0,0,-53,2041,84,-10,-14,7,193,0,0,0,0,0,0,0,0,0,0,0,
0,0,-53,2034,81,-6,-20,9,183,0,0,0,0,0,0,0,0,0,0,0,
0,0,-51,2048,83,-8,-15,7,203,0,0,0,0,0,0,0,0,0,0,0,
0,0,-47,2045,77,-7,-19,5,192,0,0,0,0,0,0,0,0,0,0,0,
0,0,-44,2038,78,-6,-18,3,189,0,0,0,0,0,0,0,0,0,0,0,
0,0,-47,2036,80,-7,-19,6,187,0,0,0,0,0,0,0,0,0,0,0,
0,0,-48,2043,75,-8,-19,6,187,0,0,0,0,0,0,0,0,0,0,0,
0,0,-49,2036,87,-10,-17,2,187,0,0,0,0,0,0,0,0,0,0,0,
0,0,-49,2042,82,-10,-17,6,192,0,0,0,0,0,0,0,0,0,0,0,
0,0,-54,2035,77,-8,-14,8,182,0,0,0,0,0,0,0,0,0,0,0,
0,0,-50,2044,81,-8,-14,9,200,0,0,0,0,0,0,0,0,0,0,0,
0,0,-50,2041,71,-8,-19,5,178,0,0,0,0,0,0,0,0,0,0,0,
0,0,-52,2038,80,-6,-17,7,188,0,0,0,0,0,0,0,0,0,0,0,
0,0,-54,2041,78,-9,-19,3,178,0,0,0,0,0,0,0,0,0,0,0,
0,0,-45,2039,74,-7,-18,6,187,0,0,0,0,0,0,0,0,0,0,0,
0,0,-46,2036,77,-7,-18,4,184,0,0,0,0,0,0,0,0,0,0,0,
0,0,-50,2038,78,-8,-20,7,183,0,0,0,0,0,0,0,0,0,0,0,
0,0,-51,2041,76,-11,-18,5,180,0,0,0,0,0,0,0,0,0,0,0,
0,0,-47,2032,73,-8,-20,5,173,0,0,0,0,0,0,0,0,0,0,0,
0,0,-51,2045,75,-8,-17,7,189,0,0,0,0,0,0,0,0,0,0,0,
0,0,-46,2039,79,-7,-15,3,191,0,0,0,0,0,0,0,0,0,0,0,
0,0,-48,2034,86,-10,-17,4,187,0,0,0,0,0,0,0,0,0,0,0,
0,0,-44,2039,77,-8,-18,4,188,0,0,0,0,0,0,0,0,0,0,0,
0,0,-55,2033,76,-7,-16,6,175,0,0,0,0,0,0,0,0,0,0,0,
0,0,-59,2037,78,-4,-16,9,183,0,0,0,0,0,0,0,0,0,0,0,
0,0,-47,2038,80,-7,-19,1,184,0,0,0,0,0,0,0,0,0,0,0,
0,0,-52,2041,80,-11,-17,5,184,0,0,0,0,0,0,0,0,0,0,0,
0,0,-49,2038,79,-8,-16,6,188,0,0,0,0,0,0,0,0,0,0,0,
0,0,-49,2038,79,-8,-16,6,188,0,0,0,0,0,0,0,0,0,0,0,
0,0,-49,2048,71,-13,-16,4,184,0,0,0,0,0,0,0,0,0,0,0,
0,0,-56,2039,84,-11,-17,5,182,0,0,0,0,0,0,0,0,0,0,0,
0,0,-45,2040,79,-7,-20,8,193,0,0,0,0,0,0,0,0,0,0,0,
0,0,-45,2040,79,-7,-20,8,193,0,0,0,0,0,0,0,0,0,0,0,
0,0,-53,2036,79,-5,-19,5,181,0,0,0,0,0,0,0,0,0,0,0,
0,0,-53,2043,77,-8,-18,3,182,0,0,0,0,0,0,0,0,0,0,0,
0,0,-45,2037,82,-9,-20,7,190,0,0,0,0,0,0,0,0,0,0,0,
0,0,-46,2044,76,-4,-19,5,194,0,0,0,0,0,0,0,0,0,0,0,
0,0,-46,2044,76,-5,-19,6,194,0,0,0,0,0,0,0,0,0,0,0,
0,0,-49,2036,78,-5,-17,5,186,0,0,0,0,0,0,0,0,0,0,0,
0,0,-49,2036,79,-12,-19,4,177,0,0,0,0,0,0,0,0,0,0,0,
0,0,-49,2045,81,-7,-18,10,200,0,0,0,0,0,0,0,0,0,0,0,
0,0,-52,2046,85,-6,-18,6,199,0,0,0,0,0,0,0,0,0,0,0,
0,0,-51,2043,79,-9,-17,5,188,0,0,0,0,0,0,0,0,0,0,0,
0,0,-49,2043,82,-10,-20,5,189,0,0,0,0,0,0,0,0,0,0,0,
0,0,-44,2037,84,-11,-17,5,192,0,0,0,0,0,0,0,0,0,0,0,
0,0,-49,2038,81,-6,-20,5,187,0,0,0,0,0,0,0,0,0,0,0,
0,0,-49,2038,81,-6,-20,5,187,0,0,0,0,0,0,0,0,0,0,0,
0,0,-54,2038,79,-8,-18,9,184,0,0,0,0,0,0,0,0,0,0,0,
0,0,-51,2043,74,-14,-17,4,177,0,0,0,0,0,0,0,0,0,0,0,
0,0,-49,2046,70,-7,-19,5,184,0,0,0,0,0,0,0,0,0,0,0,
0,0,-52,2041,83,-7,-15,3,191,0,0,0,0,0,0,0,0,0,0,0,
0,0,-47,2037,78,-8,-17,8,189,0,0,0,0,0,0,0,0,0,0,0,
0,0,-54,2042,78,-10,-18,7,183,0,0,0,0,0,0,0,0,0,0,0,
0,0,-50,2043,76,-8,-20,6,185,0,0,0,0,0,0,0,0,0,0,0,
0,0,-46,2040,74,-8,-18,4,184,0,0,0,0,0,0,0,0,0,0,0,
0,0,-53,2038,82,-11,-20,4,178,0,0,0,0,0,0,0,0,0,0,0,
0,0,-56,2038,79,-7,-17,4,179,0,0,0,0,0,0,0,0,0,0,0,
0,0,-50,2039,83,-8,-18,7,191,0,0,0,0,0,0,0,0,0,0,0,
0,0,-50,2041,81,-5,-17,7,195,0,0,0,0,0,0,0,0,0,0,0,
0,0,-53,2040,76,-8,-19,11,185,0,0,0,0,0,0,0,0,0,0,0,
0,0,-53,2047,80,-6,-18,5,193,0,0,0,0,0,0,0,0,0,0,0,
0,0,-51,2047,86,-7,-17,3,199,0,0,0,0,0,0,0,0,0,0,0,
0,0,-51,2042,77,-7,-16,7,190,0,0,0,0,0,0,0,0,0,0,0,
0,0,-52,2040,81,-7,-18,8,190,0,0,0,0,0,0,0,0,0,0,0,
0,0,-51,2040,79,-9,-16,8,189,0,0,0,0,0,0,0,0,0,0,0,
0,0,-51,2040,84,-9,-23,5,184,0,0,0,0,0,0,0,0,0,0,0,
0,0,-55,2038,80,-10,-20,6,177,0,0,0,0,0,0,0,0,0,0,0,
0,0,-54,2038,79,-4,-18,8,187,0,0,0,0,0,0,0,0,0,0,0,
0,0,-52,2034,78,-11,-20,5,172,0,0,0,0,0,0,0,0,0,0,0,
0,0,-52,2043,77,-9,-17,6,186,0,0,0,0,0,0,0,0,0,0,0,
0,0,-53,2041,70,-10,-21,9,174,0,0,0,0,0,0,0,0,0,0,0,
0,0,-56,2040,80,-6,-17,5,184,0,0,0,0,0,0,0,0,0,0,0,
0,0,-57,2049,75,-11,-19,6,182,0,0,0,0,0,0,0,0,0,0,0,
0,0,-51,2040,72,-4,-22,3,176,0,0,0,0,0,0,0,0,0,0,0,
0,0,-50,2039,78,-7,-18,8,188,0,0,0,0,0,0,0,0,0,0,0,
0,0,-50,2046,77,-8,-18,4,189,0,0,0,0,0,0,0,0,0,0,0,
0,0,-47,2038,77,-7,-15,4,188,0,0,0,0,0,0,0,0,0,0,0,
0,0,-52,2040,76,-13,-18,6,177,0,0,0,0,0,0,0,0,0,0,0,
0,0,-45,2041,83,-7,-18,5,197,0,0,0,0,0,0,0,0,0,0,0,
0,0,-52,2036,78,-9,-18,6,179,0,0,0,0,0,0,0,0,0,0,0,
0,0,-50,2042,76,-6,-20,7,187,0,0,0,0,0,0,0,0,0,0,0,
0,0,-55,2042,71,-11,-18,4,171,0,0,0,0,0,0,0,0,0,0,0,
0,0,-54,2041,78,-6,-19,8,186,0,0,0,0,0,0,0,0,0,0,0,
0,0,-52,2048,76,-10,-18,5,188,0,0,0,0,0,0,0,0,0,0,0,
0,0,-54,2040,78,-4,-17,7,188,0,0,0,0,0,0,0,0,0,0,0,
0,0,-49,2036,75,-10,-16,3,177,0,0,0,0,0,0,0,0,0,0,0,
0,0,-47,2031,78,-9,-17,5,179,0,0,0,0,0,0,0,0,0,0,0,
0,0,-50,2044,79,-6,-18,5,192,0,0,0,0,0,0,0,0,0,0,0,
0,0,-52,2041,75,-5,-18,4,183,0,0,0,0,0,0,0,0,0,0,0,
0,0,-44,2043,76,-10,-20,3,186,0,0,0,0,0,0,0,0,0,0,0,
0,0,-44,2041,77,-8,-16,8,196,0,0,0,0,0,0,0,0,0,0,0,
0,0,-50,2040,78,-6,-16,6,190,0,0,0,0,0,0,0,0,0,0,0,
0,0,-50,2041,81,-8,-19,5,188,0,0,0,0,0,0,0,0,0,0,0,
0,0,-53,2038,78,-8,-20,4,177,0,0,0,0,0,0,0,0,0,0,0,
0,0,-48,2049,77,-7,-18,7,199,0,0,0,0,0,0,0,0,0,0,0,
0,0,-50,2041,78,-11,-17,3,182,0,0,0,0,0,0,0,0,0,0,0,
0,0,-47,2044,72,-11,-18,5,183,0,0,0,0,0,0,0,0,0,0,0,
0,0,-51,2036,89,-8,-16,8,196,0,0,0,0,0,0,0,0,0,0,0,
0,0,-49,2032,83,-5,-19,7,187,0,0,0,0,0,0,0,0,0,0,0,
0,0,-51,2043,77,-13,-19,5,180,0,0,0,0,0,0,0,0,0,0,0,
0,0,-56,2040,79,-9,-16,5,181,0,0,0,0,0,0,0,0,0,0,0,
0,0,-49,2043,75,-11,-21,5,180,0,0,0,0,0,0,0,0,0,0,0,
0,0,-51,2040,75,-8,-20,6,180,0,0,0,0,0,0,0,0,0,0,0,
0,0,-51,2036,76,-12,-17,4,174,0,0,0,0,0,0,0,0,0,0,0,
0,0,-53,2047,81,-8,-23,5,187,0,0,0,0,0,0,0,0,0,0,0,
0,0,-46,2040,82,-8,-19,9,196,0,0,0,0,0,0,0,0,0,0,0,
0,0,-49,2047,79,-9,-17,5,194,0,0,0,0,0,0,0,0,0,0,0,
0,0,-47,2042,78,-6,-18,6,193,0,0,0,0,0,0,0,0,0,0,0,
0,0,-55,2033,78,-8,-19,8,175,0,0,0,0,0,0,0,0,0,0,0,
0,0,-49,2040,79,-7,-18,10,193,0,0,0,0,0,0,0,0,0,0,0,
0,0,-50,2041,85,-8,-20,8,194,0,0,0,0,0,0,0,0,0,0,0,
0,0,-50,2041,82,-6,-17,8,196,0,0,0,0,0,0,0,0,0,0,0,
0,0,-48,2046,73,-7,-18,8,192,0,0,0,0,0,0,0,0,0,0,0,
0,0,-48,2036,79,-8,-18,9,188,0,0,0,0,0,0,0,0,0,0,0,
0,0,-53,2040,77,-4,-22,5,181,0,0,0,0,0,0,0,0,0,0,0,
0,0,-53,2045,76,-8,-18,5,185,0,0,0,0,0,0,0,0,0,0,0,
0,0,-53,2038,87,-9,-16,6,191,0,0,0,0,0,0,0,0,0,0,0,
0,0,-45,2045,81,-6,-21,8,200,0,0,0,0,0,0,0,0,0,0,0,
0,0,-47,2038,75,-9,-17,5,183,0,0,0,0,0,0,0,0,0,0,0,
0,0,-55,2032,82,-8,-21,5,173,0,0,0,0,0,0,0,0,0,0,0,
0,0,-54,2043,83,-8,-19,5,188,0,0,0,0,0,0,0,0,0,0,0,
0,0,-51,2037,76,-10,-16,8,182,0,0,0,0,0,0,0,0,0,0,0,
0,0,-53,2040,82,-7,-19,3,184,0,0,0,0,0,0,0,0,0,0,0,
0,0,-50,2035,77,-8,-19,6,179,0,0,0,0,0,0,0,0,0,0,0,
0,0,-48,2041,77,-8,-19,4,185,0,0,0,0,0,0,0,0,0,0,0,
0,0,-51,2039,77,-10,-16,6,183,0,0,0,0,0,0,0,0,0,0,0,
0,0,-57,2039,81,-6,-18,5,182,0,0,0,0,0,0,0,0,0,0,0,
0,0,-56,2041,82,-7,-18,6,186,0,0,0,0,0,0,0,0,0,0,0,
0,0,-41,2037,84,-10,-19,8,197,0,0,0,0,0,0,0,0,0,0,0,
0,0,-54,2030,80,-8,-16,10,180,0,0,0,0,0,0,0,0,0,0,0,
0,0,-40,2040,77,-10,-18,9,196,0,0,0,0,0,0,0,0,0,0,0,
0,0,-51,2043,77,-9,-16,7,189,0,0,0,0,0,0,0,0,0,0,0,
0,0,-55,2037,72,-10,-20,3,165,0,0,0,0,0,0,0,0,0,0,0,
0,0,-55,2035,81,-10,-20,6,175,0,0,0,0,0,0,0,0,0,0,0,
0,0,-53,2052,75,-6,-18,9,198,0,0,0,0,0,0,0,0,0,0,0,
0,0,-53,2038,76,-8,-16,4,179,0,0,0,0,0,0,0,0,0,0,0,
0,0,-52,2038,82,-8,-18,4,184,0,0,0,0,0,0,0,0,0,0,0,
0,0,-54,2038,79,-6,-17,8,186,0,0,0,0,0,0,0,0,0,0,0,
0,0,-49,2034,78,-8,-18,2,177,0,0,0,0,0,0,0,0,0,0,0,
0,0,-49,2034,78,-8,-18,2,177,0,0,0,0,0,0,0,0,0,0,0,
0,0,-51,2041,78,-5,-17,8,192,0,0,0,0,0,0,0,0,0,0,0,
0,0,-51,2037,78,-9,-18,7,182,0,0,0,0,0,0,0,0,0,0,0,
0,0,-47,2045,78,-8,-18,8,196,0,0,0,0,0,0,0,0,0,0,0,
0,0,-47,2045,78,-7,-17,7,197,0,0,0,0,0,0,0,0,0,0,0,
0,0,-52,2039,83,-7,-19,6,188,0,0,0,0,0,0,0,0,0,0,0,
0,0,-44,2046,82,-8,-20,9,203,0,0,0,0,0,0,0,0,0,0,0,
0,0,-46,2045,84,-8,-17,6,202,0,0,0,0,0,0,0,0,0,0,0,
0,0,-46,2045,84,-8,-17,4,200,0,0,0,0,0,0,0,0,0,0,0,
0,0,-52,2047,75,-5,-19,7,191,0,0,0,0,0,0,0,0,0,0,0,
0,0,-39,2036,75,-9,-17,8,192,0,0,0,0,0,0,0,0,0,0,0,
0,0,-46,2040,82,-5,-21,4,192,0,0,0,0,0,0,0,0,0,0,0,
0,0,-48,2044,82,-9,-19,3,191,0,0,0,0,0,0,0,0,0,0,0,
0,0,-57,2040,78,-6,-19,6,180,0,0,0,0,0,0,0,0,0,0,0,
0,0,-49,2041,80,-6,-19,3,188,0,0,0,0,0,0,0,0,0,0,0,
0,0,-51,2040,76,-7,-17,6,185,0,0,0,0,0,0,0,0,0,0,0,
0,0,-51,2044,79,-8,-18,4,188,0,0,0,0,0,0,0,0,0,0,0,
0,0,-56,2042,78,-6,-17,6,185,0,0,0,0,0,0,0,0,0,0,0,
0,0,-49,2039,78,-8,-19,9,188,0,0,0,0,0,0,0,0,0,0,0,
0,0,-46,2044,72,-9,-20,9,188,0,0,0,0,0,0,0,0,0,0,0,
0,0,-50,2047,77,-8,-18,7,193,0,0,0,0,0,0,0,0,0,0,0,
0,0,-47,2039,79,-7,-22,5,185,0,0,0,0,0,0,0,0,0,0,0,
0,0,-51,2043,70,-8,-18,5,179,0,0,0,0,0,0,0,0,0,0,0,
0,0,-47,2037,80,-6,-15,7,194,0,0,0,0,0,0,0,0,0,0,0,
0,0,-50,2041,81,-8,-20,5,187,0,0,0,0,0,0,0,0,0,0,0,
0,0,-48,2036,78,-11,-17,6,182,0,0,0,0,0,0,0,0,0,0,0,
0,0,-47,2037,82,-8,-21,2,183,0,0,0,0,0,0,0,0,0,0,0,
0,0,-47,2034,80,-7,-20,6,184,0,0,0,0,0,0,0,0,0,0,0,
0,0,-48,2042,78,-10,-18,5,187,0,0,0,0,0,0,0,0,0,0,0,
0,0,-49,2040,77,-8,-20,6,184,0,0,0,0,0,0,0,0,0,0,0,
0,0,-51,2038,85,-6,-15,6,195,0,0,0,0,0,0,0,0,0,0,0,
0,0,-51,2043,85,-6,-18,5,196,0,0,0,0,0,0,0,0,0,0,0,
0,0,-48,2042,77,-11,-19,4,183,0,0,0,0,0,0,0,0,0,0,0,
0,0,-54,2040,74,-7,-20,6,177,0,0,0,0,0,0,0,0,0,0,0,
0,0,-52,2039,83,-8,-21,7,186,0,0,0,0,0,0,0,0,0,0,0,
0,0,-48,2038,83,-6,-19,6,192,0,0,0,0,0,0,0,0,0,0,0,
0,0,-50,2046,74,-9,-17,7,189,0,0,0,0,0,0,0,0,0,0,0,
0,0,-54,2039,85,-7,-18,4,187,0,0,0,0,0,0,0,0,0,0,0,
0,0,-51,2044,72,-7,-20,8,184,0,0,0,0,0,0,0,0,0,0,0,
0,0,-53,2039,75,-8,-17,7,181,0,0,0,0,0,0,0,0,0,0,0,
0,0,-54,2030,83,-11,-19,6,173,0,0,0,0,0,0,0,0,0,0,0,
0,0,-43,2038,81,-9,-17,9,197,0,0,0,0,0,0,0,0,0,0,0,
0,0,-47,2042,72,-7,-16,5,187,0,0,0,0,0,0,0,0,0,0,0,
0,0,-57,2035,83,-9,-18,4,176,0,0,0,0,0,0,0,0,0,0,0,
0,0,-54,2041,77,-8,-20,7,181,0,0,0,0,0,0,0,0,0,0,0,
0,0,-59,2042,77,-12,-18,9,177,0,0,0,0,0,0,0,0,0,0,0,
0,0,-52,2045,85,-5,-16,6,201,0,0,0,0,0,0,0,0,0,0,0,
0,0,-50,2037,77,-11,-19,1,173,0,0,0,0,0,0,0,0,0,0,0,
0,0,-49,2038,82,-10,-17,5,187,0,0,0,0,0,0,0,0,0,0,0,
0,0,-48,2034,83,-10,-20,2,179,0,0,0,0,0,0,0,0,0,0,0,
0,0,-53,2042,81,-10,-17,7,188,0,0,0,0,0,0,0,0,0,0,0,
0,0,-52,2046,76,-12,-20,4,180,0,0,0,0,0,0,0,0,0,0,0,
0,0,-50,2036,79,-9,-18,6,182,0,0,0,0,0,0,0,0,0,0,0,
0,0,-57,2040,75,-6,-21,6,175,0,0,0,0,0,0,0,0,0,0,0,
0,0,-50,2042,87,-7,-18,9,201,0,0,0,0,0,0,0,0,0,0,0,
0,0,-49,2040,81,-10,-18,6,188,0,0,0,0,0,0,0,0,0,0,0,
0,0,-44,2037,77,-10,-16,5,187,0,0,0,0,0,0,0,0,0,0,0,
0,0,-51,2041,71,-8,-16,3,178,0,0,0,0,0,0,0,0,0,0,0,
0,0,-50,2039,82,-9,-19,3,184,0,0,0,0,0,0,0,0,0,0,0,
0,0,-54,2040,76,-7,-17,4,180,0,0,0,0,0,0,0,0,0,0,0,
0,0,-54,2044,84,-10,-17,7,192,0,0,0,0,0,0,0,0,0,0,0,
0,0,-51,2041,72,-10,-18,6,178,0,0,0,0,0,0,0,0,0,0,0,
0,0,-46,2043,76,-9,-18,10,194,0,0,0,0,0,0,0,0,0,0,0,
0,0,-50,2041,82,-9,-18,2,186,0,0,0,0,0,0,0,0,0,0,0,
0,0,-49,2038,85,-8,-17,8,195,0,0,0,0,0,0,0,0,0,0,0,
0,0,-42,2043,81,-10,-21,7,196,0,0,0,0,0,0,0,0,0,0,0,
0,0,-50,2036,71,-8,-17,5,175,0,0,0,0,0,0,0,0,0,0,0,
0,0,-55,2038,75,-11,-21,3,167,0,0,0,0,0,0,0,0,0,0,0,
0,0,-54,2037,84,-9,-18,7,185,0,0,0,0,0,0,0,0,0,0,0,
0,0,-57,2040,74,-7,-17,6,177,0,0,0,0,0,0,0,0,0,0,0,
0,0,-47,2032,77,-10,-19,2,173,0,0,0,0,0,0,0,0,0,0,0,
0,0,-49,2047,78,-10,-17,5,192,0,0,0,0,0,0,0,0,0,0,0,
0,0,-45,2041,79,-9,-19,7,192,0,0,0,0,0,0,0,0,0,0,0,
0,0,-54,2046,77,-8,-17,9,191,0,0,0,0,0,0,0,0,0,0,0,
0,0,-51,2045,77,-10,-18,7,188,0,0,0,0,0,0,0,0,0,0,0,
0,0,-47,2035,81,-9,-18,4,184,0,0,0,0,0,0,0,0,0,0,0,
0,0,-54,2038,81,-6,-17,5,185,0,0,0,0,0,0,0,0,0,0,0,
0,0,-56,2039,75,-10,-16,8,178,0,0,0,0,0,0,0,0,0,0,0,
0,0,-56,2040,75,-9,-21,8,175,0,0,0,0,0,0,0,0,0,0,0,
0,0,-51,2043,82,-10,-17,3,188,0,0,0,0,0,0,0,0,0,0,0,
0,0,-52,2042,76,-9,-16,5,184,0,0,0,0,0,0,0,0,0,0,0,
0,0,-47,2035,76,-7,-21,3,177,0,0,0,0,0,0,0,0,0,0,0,
0,0,-54,2038,77,-9,-16,7,181,0,0,0,0,0,0,0,0,0,0,0,
0,0,-51,2036,79,-9,-19,3,177,0,0,0,0,0,0,0,0,0,0,0,
0,0,-53,2042,84,-9,-20,3,185,0,0,0,0,0,0,0,0,0,0,0,
0,0,-55,2044,81,-7,-17,10,194,0,0,0,0,0,0,0,0,0,0,0,
0,0,-49,2039,86,-5,-20,6,195,0,0,0,0,0,0,0,0,0,0,0,
0,0,-49,2039,75,-10,-16,5,182,0,0,0,0,0,0,0,0,0,0,0,
0,0,-49,2032,76,-9,-20,10,178,0,0,0,0,0,0,0,0,0,0,0,
0,0,-44,2042,68,-8,-20,6,182,0,0,0,0,0,0,0,0,0,0,0,
0,0,-50,2034,83,-8,-19,2,180,0,0,0,0,0,0,0,0,0,0,0,
0,0,-46,2042,78,-14,-18,1,181,0,0,0,0,0,0,0,0,0,0,0,
0,0,-49,2041,70,-10,-17,5,178,0,0,0,0,0,0,0,0,0,0,0,
0,0,-57,2041,69,-6,-21,11,175,0,0,0,0,0,0,0,0,0,0,0,
0,0,-49,2038,76,-8,-18,4,181,0,0,0,0,0,0,0,0,0,0,0,
0,0,-51,2038,82,-5,-19,6,189,0,0,0,0,0,0,0,0,0,0,0,
0,0,-58,2037,78,-10,-18,6,173,0,0,0,0,0,0,0,0,0,0,0,
0,0,-54,2040,75,-10,-18,4,175,0,0,0,0,0,0,0,0,0,0,0,
0,0,-46,2034,79,-9,-20,5,181,0,0,0,0,0,0,0,0,0,0,0,
0,0,-48,2039,76,-8,-20,5,182,0,0,0,0,0,0,0,0,0,0,0,
0,0,-60,2041,85,-9,-16,9,188,0,0,0,0,0,0,0,0,0,0,0,
0,0,-49,2040,80,-4,-16,6,195,0,0,0,0,0,0,0,0,0,0,0,
0,0,-45,2041,74,-9,-18,5,186,0,0,0,0,0,0,0,0,0,0,0,
0,0,-44,2043,80,-9,-17,7,198,0,0,0,0,0,0,0,0,0,0,0,
0,0,-55,2044,77,-9,-20,6,181,0,0,0,0,0,0,0,0,0,0,0,
0,0,-55,2040,81,-9,-18,6,183,0,0,0,0,0,0,0,0,0,0,0,
0,0,-50,2037,72,-9,-20,4,172,0,0,0,0,0,0,0,0,0,0,0,
0,0,-52,2041,78,-9,-17,6,185,0,0,0,0,0,0,0,0,0,0,0,
0,0,-52,2048,78,-8,-21,2,186,0,0,0,0,0,0,0,0,0,0,0,
0,0,-53,2044,80,-5,-18,7,193,0,0,0,0,0,0,0,0,0,0,0,
0,0,-48,2042,80,-8,-18,3,189,0,0,0,0,0,0,0,0,0,0,0,
0,0,-48,2042,80,-8,-18,3,189,0,0,0,0,0,0,0,0,0,0,0,
0,0,-46,2040,75,-10,-19,3,181,0,0,0,0,0,0,0,0,0,0,0,
0,0,-49,2038,80,-8,-19,8,188,0,0,0,0,0,0,0,0,0,0,0,
0,0,-47,2042,73,-10,-19,7,184,0,0,0,0,0,0,0,0,0,0,0,
0,0,-47,2042,73,-9,-20,9,186,0,0,0,0,0,0,0,0,0,0,0,
0,0,-49,2033,76,-11,-17,3,173,0,0,0,0,0,0,0,0,0,0,0,
0,0,-50,2043,74,-9,-19,6,183,0,0,0,0,0,0,0,0,0,0,0,
0,0,-45,2034,80,-8,-18,5,186,0,0,0,0,0,0,0,0,0,0,0,
0,0,-45,2034,80,-9,-22,7,183,0,0,0,0,0,0,0,0,0,0,0,
0,0,-50,2042,76,-12,-18,6,182,0,0,0,0,0,0,0,0,0,0,0,
0,0,-46,2034,81,-7,-19,6,187,0,0,0,0,0,0,0,0,0,0,0,
0,0,-48,2043,81,-6,-20,7,195,0,0,0,0,0,0,0,0,0,0,0,
0,0,-51,2042,82,-6,-17,6,194,0,0,0,0,0,0,0,0,0,0,0,
0,0,-54,2034,76,-7,-17,7,177,0,0,0,0,0,0,0,0,0,0,0,
0,0,-52,2039,75,-10,-20,5,175,0,0,0,0,0,0,0,0,0,0,0,
0,0,-54,2037,83,-10,-22,6,178,0,0,0,0,0,0,0,0,0,0,0,
0,0,-53,2040,77,-9,-18,4,179,0,0,0,0,0,0,0,0,0,0,0,
0,0,-43,2034,77,-7,-19,3,183,0,0,0,0,0,0,0,0,0,0,0,
0,0,-52,2045,78,-9,-18,3,185,0,0,0,0,0,0,0,0,0,0,0,
0,0,-54,2040,78,-9,-17,7,183,0,0,0,0,0,0,0,0,0,0,0,
0,0,-50,2043,84,-7,-19,6,195,0,0,0,0,0,0,0,0,0,0,0,
0,0,-50,2043,84,-9,-18,5,193,0,0,0,0,0,0,0,0,0,0,0,
0,0,-44,2038,79,-9,-18,4,188,0,0,0,0,0,0,0,0,0,0,0,
0,0,-49,2034,76,-3,-19,7,184,0,0,0,0,0,0,0,0,0,0,0,
0,0,-49,2047,83,-8,-17,4,198,0,0,0,0,0,0,0,0,0,0,0,
0,0,-50,2046,78,-9,-19,4,188,0,0,0,0,0,0,0,0,0,0,0,
0,0,-53,2043,75,-11,-17,7,182,0,0,0,0,0,0,0,0,0,0,0,
0,0,-51,2042,78,-9,-19,6,185,0,0,0,0,0,0,0,0,0,0,0,
0,0,-48,2042,71,-11,-22,7,177,0,0,0,0,0,0,0,0,0,0,0,
0,0,-48,2046,78,-6,-19,8,197,0,0,0,0,0,0,0,0,0,0,0,
0,0,-49,2042,78,-6,-20,3,186,0,0,0,0,0,0,0,0,0,0,0,
0,0,-46,2038,80,-7,-18,6,191,0,0,0,0,0,0,0,0,0,0,0,
0,0,-48,2040,74,-10,-16,4,182,0,0,0,0,0,0,0,0,0,0,0,
0,0,-57,2041,75,-9,-17,4,175,0,0,0,0,0,0,0,0,0,0,0,
0,0,-47,2041,77,-7,-17,6,191,0,0,0,0,0,0,0,0,0,0,0,
0,0,-46,2047,78,-12,-15,5,195,0,0,0,0,0,0,0,0,0,0,0,
0,0,-52,2044,73,-8,-19,6,182,0,0,0,0,0,0,0,0,0,0,0,
0,0,-51,2036,86,-7,-20,7,189,0,0,0,0,0,0,0,0,0,0,0,
0,0,-47,2043,78,-9,-18,6,191,0,0,0,0,0,0,0,0,0,0,0,
0,0,-46,2036,75,-13,-19,5,176,0,0,0,0,0,0,0,0,0,0,0,
0,0,-48,2036,74,-10,-14,4,180,0,0,0,0,0,0,0,0,0,0,0,
0,0,-52,2038,83,-8,-17,5,187,0,0,0,0,0,0,0,0,0,0,0,
0,0,-57,2046,82,-7,-18,6,190,0,0,0,0,0,0,0,0,0,0,0,
0,0,-47,2043,81,-7,-20,5,193,0,0,0,0,0,0,0,0,0,0,0,
0,0,-47,2039,72,-6,-16,3,183,0,0,0,0,0,0,0,0,0,0,0,
0,0,-56,2040,77,-8,-15,6,182,0,0,0,0,0,0,0,0,0,0,0,
0,0,-51,2041,80,-8,-18,8,190,0,0,0,0,0,0,0,0,0,0,0,
0,0,-48,2045,78,-9,-20,7,191,0,0,0,0,0,0,0,0,0,0,0,
0,0,-44,2044,74,-10,-18,7,191,0,0,0,0,0,0,0,0,0,0,0,
0,0,-55,2039,79,-9,-20,5,177,0,0,0,0,0,0,0,0,0,0,0,
0,0,-54,2039,72,-7,-19,8,177,0,0,0,0,0,0,0,0,0,0,0,
0,0,-52,2040,75,-9,-18,3,177,0,0,0,0,0,0,0,0,0,0,0,
0,0,-48,2045,78,-9,-18,4,190,0,0,0,0,0,0,0,0,0,0,0,
0,0,-56,2048,80,-7,-17,8,195,0,0,0,0,0,0,0,0,0,0,0,
0,0,-49,2050,71,-8,-20,7,190,0,0,0,0,0,0,0,0,0,0,0,
0,0,-49,2051,83,-9,-16,8,207,0,0,0,0,0,0,0,0,0,0,0,
0,0,-52,2037,83,-9,-18,4,183,0,0,0,0,0,0,0,0,0,0,0,
0,0,-47,2044,80,-10,-19,7,193,0,0,0,0,0,0,0,0,0,0,0,
0,0,-51,2050,72,-10,-16,6,190,0,0,0,0,0,0,0,0,0,0,0,
0,0,-50,2041,81,-6,-14,4,194,0,0,0,0,0,0,0,0,0,0,0,
0,0,-50,2043,77,-9,-20,5,184,0,0,0,0,0,0,0,0,0,0,0,
0,0,-48,2038,84,-9,-17,7,193,0,0,0,0,0,0,0,0,0,0,0,
0,0,-53,2044,80,-9,-18,7,189,0,0,0,0,0,0,0,0,0,0,0,
0,0,-51,2035,76,-6,-19,5,178,0,0,0,0,0,0,0,0,0,0,0,
0,0,-57,2036,74,-8,-18,8,173,0,0,0,0,0,0,0,0,0,0,0,
0,0,-53,2041,82,-7,-17,7,191,0,0,0,0,0,0,0,0,0,0,0,
0,0,-52,2039,75,-7,-18,6,181,0,0,0,0,0,0,0,0,0,0,0,
0,0,-52,2040,72,-10,-18,6,176,0,0,0,0,0,0,0,0,0,0,0,
0,0,-52,2026,82,-10,-18,4,170,0,0,0,0,0,0,0,0,0,0,0,
0,0,-53,2036,74,-10,-16,3,172,0,0,0,0,0,0,0,0,0,0,0,
0,0,-50,2043,76,-11,-18,7,185,0,0,0,0,0,0,0,0,0,0,0,
0,0,-42,2037,82,-9,-18,5,193,0,0,0,0,0,0,0,0,0,0,0,
0,0,-48,2039,82,-6,-18,5,192,0,0,0,0,0,0,0,0,0,0,0,
0,0,-46,2041,76,-11,-16,5,187,0,0,0,0,0,0,0,0,0,0,0,
0,0,-50,2046,86,-10,-16,6,200,0,0,0,0,0,0,0,0,0,0,0,
0,0,-50,2048,77,-8,-19,2,189,0,0,0,0,0,0,0,0,0,0,0,
0,0,-49,2037,80,-10,-17,4,183,0,0,0,0,0,0,0,0,0,0,0,
0,0,-49,2044,76,-8,-17,5,189,0,0,0,0,0,0,0,0,0,0,0,
0,0,-51,2041,78,-11,-18,5,182,0,0,0,0,0,0,0,0,0,0,0,
0,0,-49,2042,72,-7,-17,6,185,0,0,0,0,0,0,0,0,0,0,0,
0,0,-47,2040,81,-12,-19,4,185,0,0,0,0,0,0,0,0,0,0,0,
0,0,-51,2040,80,-9,-20,7,185,0,0,0,0,0,0,0,0,0,0,0,
0,0,-55,2036,82,-8,-19,6,180,0,0,0,0,0,0,0,0,0,0,0,
0,0,-46,2033,81,-8,-18,6,186,0,0,0,0,0,0,0,0,0,0,0,
0,0,-49,2039,82,-9,-20,4,185,0,0,0,0,0,0,0,0,0,0,0,
0,0,-48,2038,79,-10,-21,8,184,0,0,0,0,0,0,0,0,0,0,0,
0,0,-49,2039,82,-8,-19,2,185,0,0,0,0,0,0,0,0,0,0,0,
0,0,-51,2046,73,-11,-19,4,180,0,0,0,0,0,0,0,0,0,0,0,
0,0,-48,2048,77,-8,-16,8,200,0,0,0,0,0,0,0,0,0,0,0,
0,0,-53,2044,77,-8,-18,6,186,0,0,0,0,0,0,0,0,0,0,0,
0,0,-52,2036,77,-8,-17,9,183,0,0,0,0,0,0,0,0,0,0,0,
0,0,-50,2042,72,-8,-16,7,185,0,0,0,0,0,0,0,0,0,0,0,
0,0,-49,2035,76,-5,-16,3,182,0,0,0,0,0,0,0,0,0,0,0,
0,0,-53,2040,72,-6,-17,8,182,0,0,0,0,0,0,0,0,0,0,0,
0,0,-46,2030,78,-9,-16,2,177,0,0,0,0,0,0,0,0,0,0,0,
0,0,-43,2041,79,-8,-21,6,192,0,0,0,0,0,0,0,0,0,0,0,
0,0,-56,2046,80,-7,-15,3,189,0,0,0,0,0,0,0,0,0,0,0,
0,0,-56,2034,85,-8,-18,10,185,0,0,0,0,0,0,0,0,0,0,0,
0,0,-44,2039,81,-8,-19,6,193,0,0,0,0,0,0,0,0,0,0,0,
0,0,-51,2049,76,-11,-19,2,185,0,0,0,0,0,0,0,0,0,0,0,
0,0,-51,2041,79,-9,-16,6,188,0,0,0,0,0,0,0,0,0,0,0,
0,0,-52,2036,74,-7,-15,7,181,0,0,0,0,0,0,0,0,0,0,0,
0,0,-53,2036,76,-9,-17,5,176,0,0,0,0,0,0,0,0,0,0,0,
0,0,-52,2035,75,-10,-19,5,172,0,0,0,0,0,0,0,0,0,0,0,
0,0,-49,2046,78,-9,-19,4,189,0,0,0,0,0,0,0,0,0,0,0,
0,0,-51,2042,80,-9,-18,6,188,0,0,0,0,0,0,0,0,0,0,0,
0,0,-51,2042,80,-9,-18,6,188,0,0,0,0,0,0,0,0,0,0,0,
0,0,-50,2040,78,-8,-19,6,185,0,0,0,0,0,0,0,0,0,0,0,
0,0,-53,2041,82,-9,-17,4,186,0,0,0,0,0,0,0,0,0,0,0,
0,0,-56,2042,79,-8,-17,6,184,0,0,0,0,0,0,0,0,0,0,0,
0,0,-52,2038,78,-3,-18,9,190,0,0,0,0,0,0,0,0,0,0,0,
0,0,-53,2042,79,-14,-18,5,179,0,0,0,0,0,0,0,0,0,0,0,
0,0,-53,2042,79,-7,-19,6,186,0,0,0,0,0,0,0,0,0,0,0,
0,0,-52,2041,83,-7,-17,7,193,0,0,0,0,0,0,0,0,0,0,0,
0,0,-52,2040,87,-8,-17,7,195,0,0,0,0,0,0,0,0,0,0,0,
0,0,-46,2036,83,-8,-16,6,193,0,0,0,0,0,0,0,0,0,0,0,
0,0,-46,2036,83,-8,-18,8,193,0,0,0,0,0,0,0,0,0,0,0,
0,0,-51,2042,86,-8,-18,6,195,0,0,0,0,0,0,0,0,0,0,0,
0,0,-49,2043,71,-9,-17,7,184,0,0,0,0,0,0,0,0,0,0,0,
0,0,-46,2042,81,-9,-22,-1,182,0,0,0,0,0,0,0,0,0,0,0,
0,0,-52,2041,80,-6,-19,6,188,0,0,0,0,0,0,0,0,0,0,0,
0,0,-57,2040,80,-10,-16,6,181,0,0,0,0,0,0,0,0,0,0,0,
0,0,-50,2040,74,-10,-17,7,182,0,0,0,0,0,0,0,0,0,0,0,
0,0,-48,2042,73,-6,-19,6,186,0,0,0,0,0,0,0,0,0,0,0,
0,0,-52,2032,76,-9,-16,5,174,0,0,0,0,0,0,0,0,0,0,0,
0,0,-53,2039,80,-8,-17,5,184,0,0,0,0,0,0,0,0,0,0,0,
0,0,-41,2042,77,-7,-15,8,202,0,0,0,0,0,0,0,0,0,0,0,
0,0,-57,2037,80,-6,-18,3,177,0,0,0,0,0,0,0,0,0,0,0,
0,0,-58,2041,75,-8,-15,6,179,0,0,0,0,0,0,0,0,0,0,0,
0,0,-50,2041,75,-11,-20,7,180,0,0,0,0,0,0,0,0,0,0,0,
0,0,-43,2037,81,-9,-17,8,195,0,0,0,0,0,0,0,0,0,0,0,
0,0,-55,2044,82,-10,-21,6,184,0,0,0,0,0,0,0,0,0,0,0,
0,0,-49,2033,75,-11,-18,7,175,0,0,0,0,0,0,0,0,0,0,0,
0,0,-49,2032,80,-7,-17,5,182,0,0,0,0,0,0,0,0,0,0,0,
0,0,-53,2041,75,-6,-18,6,183,0,0,0,0,0,0,0,0,0,0,0,
0,0,-45,2044,79,-9,-18,3,192,0,0,0,0,0,0,0,0,0,0,0,
0,0,-48,2049,79,-6,-20,7,200,0,0,0,0,0,0,0,0,0,0,0,
0,0,-49,2041,76,-8,-18,6,186,0,0,0,0,0,0,0,0,0,0,0,
0,0,-55,2041,68,-8,-15,7,176,0,0,0,0,0,0,0,0,0,0,0,
0,0,-47,2043,76,-8,-18,7,191,0,0,0,0,0,0,0,0,0,0,0,
0,0,-51,2037,86,-10,-19,7,188,0,0,0,0,0,0,0,0,0,0,0,
0,0,-48,2038,73,-12,-18,4,175,0,0,0,0,0,0,0,0,0,0,0,
0,0,-53,2033,72,-8,-19,8,171,0,0,0,0,0,0,0,0,0,0,0,
0,0,-58,2040,85,-10,-17,5,183,0,0,0,0,0,0,0,0,0,0,0,
0,0,-46,2037,79,-7,-20,8,189,0,0,0,0,0,0,0,0,0,0,0,
0,0,-51,2042,78,-11,-14,9,191,0,0,0,0,0,0,0,0,0,0,0,
0,0,-52,2036,81,-7,-20,8,184,0,0,0,0,0,0,0,0,0,0,0,
0,0,-53,2040,80,-8,-19,6,184,0,0,0,0,0,0,0,0,0,0,0,
0,0,-53,2041,77,-10,-20,7,180,0,0,0,0,0,0,0,0,0,0,0,
0,0,-51,2040,82,-8,-21,5,185,0,0,0,0,0,0,0,0,0,0,0,
0,0,-49,2037,76,-7,-17,7,185,0,0,0,0,0,0,0,0,0,0,0,
0,0,-53,2040,74,-7,-16,1,177,0,0,0,0,0,0,0,0,0,0,0,
0,0,-53,2043,83,-7,-20,7,191,0,0,0,0,0,0,0,0,0,0,0,
0,0,-56,2036,79,-8,-18,8,179,0,0,0,0,0,0,0,0,0,0,0,
0,0,-51,2036,74,-7,-19,8,179,0,0,0,0,0,0,0,0,0,0,0,
0,0,-42,2044,81,-7,-17,4,201,0,0,0,0,0,0,0,0,0,0,0,
0,0,-56,2043,86,-5,-19,4,191,0,0,0,0,0,0,0,0,0,0,0,
0,0,-49,2038,79,-10,-15,9,190,0,0,0,0,0,0,0,0,0,0,0,
0,0,-49,2036,81,-5,-19,2,184,0,0,0,0,0,0,0,0,0,0,0,
0,0,-54,2040,79,-5,-15,5,188,0,0,0,0,0,0,0,0,0,0,0,
0,0,-54,2041,74,-7,-20,4,176,0,0,0,0,0,0,0,0,0,0,0,
0,0,-50,2039,80,-9,-15,7,190,0,0,0,0,0,0,0,0,0,0,0,
0,0,-54,2040,81,-9,-22,7,181,0,0,0,0,0,0,0,0,0,0,0,
0,0,-56,2039,72,-6,-17,6,176,0,0,0,0,0,0,0,0,0,0,0,
0,0,-54,2042,79,-5,-19,10,191,0,0,0,0,0,0,0,0,0,0,0,
0,0,-58,2038,81,-10,-19,6,176,0,0,0,0,0,0,0,0,0,0,0,
0,0,-51,2038,86,-9,-19,3,186,0,0,0,0,0,0,0,0,0,0,0,
0,0,-56,2037,76,-9,-19,4,171,0,0,0,0,0,0,0,0,0,0,0,
0,0,-47,2039,78,-5,-17,10,196,0,0,0,0,0,0,0,0,0,0,0,
0,0,-51,2044,80,-7,-18,11,197,0,0,0,0,0,0,0,0,0,0,0,
0,0,-55,2037,77,-13,-16,2,170,0,0,0,0,0,0,0,0,0,0,0,
0,0,-55,2039,74,-8,-19,7,176,0,0,0,0,0,0,0,0,0,0,0,
0,0,-52,2048,80,-11,-20,7,191,0,0,0,0,0,0,0,0,0,0,0,
0,0,-50,2041,76,-5,-21,8,187,0,0,0,0,0,0,0,0,0,0,0,
0,0,-52,2044,77,-12,-20,4,179,0,0,0,0,0,0,0,0,0,0,0,
0,0,-43,2042,78,-10,-16,7,196,0,0,0,0,0,0,0,0,0,0,0,
0,0,-54,2041,76,-9,-19,9,182,0,0,0,0,0,0,0,0,0,0,0,
0,0,-52,2042,89,-7,-18,8,200,0,0,0,0,0,0,0,0,0,0,0,
0,0,-53,2035,80,-9,-22,2,171,0,0,0,0,0,0,0,0,0,0,0,
0,0,-44,2039,76,-9,-18,5,187,0,0,0,0,0,0,0,0,0,0,0,
0,0,-49,2038,83,-8,-17,5,190,0,0,0,0,0,0,0,0,0,0,0,
0,0,-49,2039,79,-5,-19,4,187,0,0,0,0,0,0,0,0,0,0,0,
0,0,-52,2045,77,-7,-17,3,187,0,0,0,0,0,0,0,0,0,0,0,
0,0,-55,2040,73,-9,-17,10,180,0,0,0,0,0,0,0,0,0,0,0,
0,0,-48,2041,76,-6,-17,7,191,0,0,0,0,0,0,0,0,0,0,0,
0,0,-57,2049,77,-7,-18,4,187,0,0,0,0,0,0,0,0,0,0,0,
0,0,-51,2038,76,-7,-17,5,182,0,0,0,0,0,0,0,0,0,0,0,
0,0,-51,2035,73,-6,-19,4,174,0,0,0,0,0,0,0,0,0,0,0,
0,0,-48,2036,82,-6,-19,7,190,0,0,0,0,0,0,0,0,0,0,0,
0,0,-52,2040,76,-9,-18,8,183,0,0,0,0,0,0,0,0,0,0,0,
0,0,-49,2035,82,-10,-18,7,185,0,0,0,0,0,0,0,0,0,0,0,
0,0,-53,2041,75,-13,-18,6,176,0,0,0,0,0,0,0,0,0,0,0,
0,0,-59,2041,79,-7,-18,5,179,0,0,0,0,0,0,0,0,0,0,0,
0,0,-52,2043,77,-6,-16,7,191,0,0,0,0,0,0,0,0,0,0,0,
0,0,-51,2034,76,-11,-17,5,174,0,0,0,0,0,0,0,0,0,0,0,
0,0,-53,2039,81,-7,-19,6,185,0,0,0,0,0,0,0,0,0,0,0,
0,0,-55,2034,74,-8,-18,9,174,0,0,0,0,0,0,0,0,0,0,0,
0,0,-52,2041,81,-9,-18,4,185,0,0,0,0,0,0,0,0,0,0,0,
0,0,-49,2041,84,-5,-18,7,198,0,0,0,0,0,0,0,0,0,0,0,
0,0,-49,2042,79,-9,-18,7,190,0,0,0,0,0,0,0,0,0,0,0,
0,0,-53,2043,75,-7,-18,6,184,0,0,0,0,0,0,0,0,0,0,0,
0,0,-52,2039,84,-10,-21,4,182,0,0,0,0,0,0,0,0,0,0,0,
0,0,-44,2049,79,-9,-17,3,200,0,0,0,0,0,0,0,0,0,0,0,
0,0,-49,2046,81,-12,-18,7,193,0,0,0,0,0,0,0,0,0,0,0,
0,0,-48,2041,80,-9,-21,11,192,0,0,0,0,0,0,0,0,0,0,0,
0,0,-45,2045,75,-8,-17,7,195,0,0,0,0,0,0,0,0,0,0,0,
0,0,-49,2038,74,-8,-16,7,184,0,0,0,0,0,0,0,0,0,0,0,
0,0,-52,2035,78,-7,-17,6,181,0,0,0,0,0,0,0,0,0,0,0,
0,0,-47,2041,82,-7,-17,5,195,0,0,0,0,0,0,0,0,0,0,0,
0,0,-48,2040,84,-11,-18,6,191,0,0,0,0,0,0,0,0,0,0,0,
0,0,-42,2037,75,-8,-20,4,184,0,0,0,0,0,0,0,0,0,0,0,
0,0,-55,2052,77,-7,-16,8,198,0,0,0,0,0,0,0,0,0,0,0,
0,0,-52,2041,76,-5,-23,8,183,0,0,0,0,0,0,0,0,0,0,0,
0,0,-56,2037,78,-5,-18,6,180,0,0,0,0,0,0,0,0,0,0,0,
0,0,-46,2037,76,-12,-19,6,180,0,0,0,0,0,0,0,0,0,0,0,
0,0,-52,2043,82,-7,-17,6,193,0,0,0,0,0,0,0,0,0,0,0,
0,0,-52,2043,82,-7,-17,6,193,0,0,0,0,0,0,0,0,0,0,0,
0,0,-54,2037,77,-11,-16,3,174,0,0,0,0,0,0,0,0,0,0,0,
0,0,-56,2034,76,-9,-22,2,163,0,0,0,0,0,0,0,0,0,0,0,
0,0,-55,2034,75,-9,-17,5,171,0,0,0,0,0,0,0,0,0,0,0,
0,0,-49,2040,82,-6,-17,4,192,0,0,0,0,0,0,0,0,0,0,0,
0,0,-53,2041,81,-8,-18,5,186,0,0,0,0,0,0,0,0,0,0,0,
0,0,-53,2041,81,-7,-18,11,193,0,0,0,0,0,0,0,0,0,0,0,
0,0,-55,2040,72,-9,-19,5,172,0,0,0,0,0,0,0,0,0,0,0,
0,0,-45,2036,78,-11,-20,4,180,0,0,0,0,0,0,0,0,0,0,0,
0,0,-47,2041,79,-11,-17,6,189,0,0,0,0,0,0,0,0,0,0,0,
0,0,-47,2041,79,-10,-15,5,191,0,0,0,0,0,0,0,0,0,0,0,
0,0,-58,2044,78,-6,-21,5,180,0,0,0,0,0,0,0,0,0,0,0,
0,0,-52,2040,77,-8,-16,8,187,0,0,0,0,0,0,0,0,0,0,0,
0,0,-51,2045,74,-9,-19,5,183,0,0,0,0,0,0,0,0,0,0,0,
0,0,-49,2046,76,-7,-17,7,194,0,0,0,0,0,0,0,0,0,0,0,
0,0,-55,2046,77,-8,-17,7,188,0,0,0,0,0,0,0,0,0,0,0,
0,0,-53,2044,83,-7,-19,3,189,0,0,0,0,0,0,0,0,0,0,0,
0,0,-53,2039,77,-9,-18,5,179,0,0,0,0,0,0,0,0,0,0,0,
0,0,-55,2041,77,-7,-18,8,184,0,0,0,0,0,0,0,0,0,0,0,
0,0,-45,2036,77,-10,-19,5,182,0,0,0,0,0,0,0,0,0,0,0,
0,0,-48,2036,72,-10,-18,4,174,0,0,0,0,0,0,0,0,0,0,0,
0,0,-48,2039,81,-10,-17,8,191,0,0,0,0,0,0,0,0,0,0,0,
0,0,-47,2040,85,-7,-19,6,196,0,0,0,0,0,0,0,0,0,0,0,
0,0,-56,2050,74,-7,-19,5,186,0,0,0,0,0,0,0,0,0,0,0,
0,0,-54,2044,80,-12,-18,6,184,0,0,0,0,0,0,0,0,0,0,0,
0,0,-46,2040,80,-12,-18,5,187,0,0,0,0,0,0,0,0,0,0,0,
0,0,-48,2041,77,-10,-21,4,181,0,0,0,0,0,0,0,0,0,0,0,
0,0,-51,2042,75,-7,-19,4,182,0,0,0,0,0,0,0,0,0,0,0,
0,0,-44,2036,77,-12,-17,4,182,0,0,0,0,0,0,0,0,0,0,0,
0,0,-55,2041,75,-11,-15,5,178,0,0,0,0,0,0,0,0,0,0,0,
0,0,-55,2045,82,-8,-19,8,191,0,0,0,0,0,0,0,0,0,0,0,
0,0,-47,2038,83,-3,-18,2,193,0,0,0,0,0,0,0,0,0,0,0,
0,0,-55,2032,77,-7,-19,4,170,0,0,0,0,0,0,0,0,0,0,0,
0,0,-52,2041,81,-9,-20,5,184,0,0,0,0,0,0,0,0,0,0,0,
0,0,-47,2037,78,-7,-19,5,185,0,0,0,0,0,0,0,0,0,0,0,
0,0,-50,2041,78,-7,-18,3,185,0,0,0,0,0,0,0,0,0,0,0,
0,0,-48,2041,77,-7,-19,5,187,0,0,0,0,0,0,0,0,0,0,0,
0,0,-51,2045,79,-7,-20,8,192,0,0,0,0,0,0,0,0,0,0,0,
0,0,-48,2039,77,-7,-19,8,188,0,0,0,0,0,0,0,0,0,0,0,
0,0,-50,2035,78,-8,-18,5,180,0,0,0,0,0,0,0,0,0,0,0,
0,0,-48,2041,77,-11,-19,5,183,0,0,0,0,0,0,0,0,0,0,0,
0,0,-53,2042,81,-10,-17,5,186,0,0,0,0,0,0,0,0,0,0,0,
0,0,-50,2034,76,-12,-18,7,175,0,0,0,0,0,0,0,0,0,0,0,
0,0,-53,2036,81,-8,-16,2,180,0,0,0,0,0,0,0,0,0,0,0,
0,0,-46,2049,80,-7,-18,8,205,0,0,0,0,0,0,0,0,0,0,0,
0,0,-50,2041,76,-8,-19,8,186,0,0,0,0,0,0,0,0,0,0,0,
0,0,-54,2050,71,-6,-20,6,186,0,0,0,0,0,0,0,0,0,0,0,
0,0,-51,2042,76,-9,-19,8,185,0,0,0,0,0,0,0,0,0,0,0,
0,0,-53,2032,78,-7,-17,6,177,0,0,0,0,0,0,0,0,0,0,0,
0,0,-49,2038,83,-9,-16,6,191,0,0,0,0,0,0,0,0,0,0,0,
0,0,-54,2038,80,-6,-20,5,181,0,0,0,0,0,0,0,0,0,0,0,
0,0,-50,2038,79,-9,-18,5,183,0,0,0,0,0,0,0,0,0,0,0,
0,0,-49,2044,78,-14,-17,9,189,0,0,0,0,0,0,0,0,0,0,0,
0,0,-50,2040,78,-6,-15,2,187,0,0,0,0,0,0,0,0,0,0,0,
0,0,-55,2036,79,-10,-19,1,170,0,0,0,0,0,0,0,0,0,0,0,
0,0,-53,2041,73,-7,-20,6,178,0,0,0,0,0,0,0,0,0,0,0,
0,0,-53,2038,82,-10,-16,5,184,0,0,0,0,0,0,0,0,0,0,0,
0,0,-55,2040,78,-8,-17,5,181,0,0,0,0,0,0,0,0,0,0,0,
0,0,-53,2040,77,-10,-17,6,181,0,0,0,0,0,0,0,0,0,0,0,
0,0,-58,2038,85,-5,-21,6,183,0,0,0,0,0,0,0,0,0,0,0,
0,0,-55,2034,73,-8,-17,9,174,0,0,0,0,0,0,0,0,0,0,0,
0,0,-50,2041,81,-10,-20,7,187,0,0,0,0,0,0,0,0,0,0,0,
0,0,-50,2037,81,-10,-18,6,184,0,0,0,0,0,0,0,0,0,0,0,
0,0,-52,2038,79,-12,-18,5,178,0,0,0,0,0,0,0,0,0,0,0,
0,0,-54,2039,81,-9,-18,6,183,0,0,0,0,0,0,0,0,0,0,0,
0,0,-50,2044,79,-5,-20,6,192,0,0,0,0,0,0,0,0,0,0,0,
0,0,-46,2042,77,-8,-19,4,188,0,0,0,0,0,0,0,0,0,0,0,
0,0,-52,2040,78,-9,-24,7,178,0,0,0,0,0,0,0,0,0,0,0,
0,0,-54,2037,82,-8,-18,4,181,0,0,0,0,0,0,0,0,0,0,0,
0,0,-52,2041,79,-6,-17,6,189,0,0,0,0,0,0,0,0,0,0,0,
0,0,-47,2045,80,-12,-19,5,190,0,0,0,0,0,0,0,0,0,0,0,
0,0,-50,2040,85,-8,-19,2,188,0,0,0,0,0,0,0,0,0,0,0,
0,0,-53,2038,82,-10,-18,9,186,0,0,0,0,0,0,0,0,0,0,0,
0,0,-49,2038,88,-12,-19,5,189,0,0,0,0,0,0,0,0,0,0,0,
0,0,-47,2051,81,-9,-19,3,199,0,0,0,0,0,0,0,0,0,0,0,
0,0,-51,2040,77,-8,-17,6,185,0,0,0,0,0,0,0,0,0,0,0,
0,0,-52,2033,75,-11,-17,7,173,0,0,0,0,0,0,0,0,0,0,0,
0,0,-52,2042,86,-8,-16,5,195,0,0,0,0,0,0,0,0,0,0,0,
0,0,-53,2043,76,-8,-17,5,184,0,0,0,0,0,0,0,0,0,0,0,
0,0,-53,2044,79,-8,-20,3,183,0,0,0,0,0,0,0,0,0,0,0,
0,0,-50,2037,85,-8,-21,6,187,0,0,0,0,0,0,0,0,0,0,0,
0,0,-48,2044,79,-6,-19,7,195,0,0,0,0,0,0,0,0,0,0,0,
0,0,-53,2042,73,-12,-18,4,174,0,0,0,0,0,0,0,0,0,0,0,
0,0,-46,2038,76,-9,-20,6,183,0,0,0,0,0,0,0,0,0,0,0,
0,0,-50,2038,76,-5,-17,6,186,0,0,0,0,0,0,0,0,0,0,0,
0,0,-47,2040,79,-4,-15,5,196,0,0,0,0,0,0,0,0,0,0,0,
0,0,-45,2038,78,-8,-14,5,192,0,0,0,0,0,0,0,0,0,0,0,
0,0,-52,2038,71,-7,-17,5,176,0,0,0,0,0,0,0,0,0,0,0,
0,0,-55,2038,75,-8,-22,10,176,0,0,0,0,0,0,0,0,0,0,0,
0,0,-49,2041,84,-12,-17,8,193,0,0,0,0,0,0,0,0,0,0,0,
0,0,-54,2040,78,-9,-20,8,181,0,0,0,0,0,0,0,0,0,0,0,
0,0,-50,2038,86,-5,-19,7,195,0,0,0,0,0,0,0,0,0,0,0,
0,0,-51,2037,77,-5,-18,7,185,0,0,0,0,0,0,0,0,0,0,0,
0,0,-60,2039,75,-8,-18,2,168,0,0,0,0,0,0,0,0,0,0,0,
0,0,-53,2038,78,-8,-19,6,180,0,0,0,0,0,0,0,0,0,0,0,
0,0,-57,2046,78,-7,-18,6,186,0,0,0,0,0,0,0,0,0,0,0,
0,0,-50,2040,77,-9,-20,6,182,0,0,0,0,0,0,0,0,0,0,0,
0,0,-53,2041,75,-7,-20,7,181,0,0,0,0,0,0,0,0,0,0,0,
0,0,-57,2034,76,-10,-18,3,166,0,0,0,0,0,0,0,0,0,0,0,
0,0,-50,2038,80,-11,-19,3,179,0,0,0,0,0,0,0,0,0,0,0,
0,0,-53,2039,83,-11,-16,7,187,0,0,0,0,0,0,0,0,0,0,0,
0,0,-60,2038,73,-8,-16,7,172,0,0,0,0,0,0,0,0,0,0,0,
0,0,-54,2041,81,-9,-18,3,182,0,0,0,0,0,0,0,0,0,0,0,
0,0,-56,2035,80,-10,-18,2,171,0,0,0,0,0,0,0,0,0,0,0,
0,0,-49,2039,77,-8,-20,6,183,0,0,0,0,0,0,0,0,0,0,0,
0,0,-50,2043,76,-8,-21,6,184,0,0,0,0,0,0,0,0,0,0,0,
0,0,-52,2038,79,-8,-18,9,186,0,0,0,0,0,0,0,0,0,0,0,
0,0,-56,2042,80,-5,-19,4,184,0,0,0,0,0,0,0,0,0,0,0,
0,0,-56,2042,80,-5,-19,4,184,0,0,0,0,0,0,0,0,0,0,0,
0,0,-56,2040,73,-8,-19,-1,166,0,0,0,0,0,0,0,0,0,0,0,
0,0,-48,2037,73,-8,-19,-1,171,0,0,0,0,0,0,0,0,0,0,0,
0,0,-55,2043,77,-9,-18,8,184,0,0,0,0,0,0,0,0,0,0,0,
0,0,-55,2043,77,-9,-18,8,184,0,0,0,0,0,0,0,0,0,0,0,
0,0,-52,2041,76,-9,-18,8,184,0,0,0,0,0,0,0,0,0,0,0,
0,0,-56,2045,78,-8,-17,9,189,0,0,0,0,0,0,0,0,0,0,0,
0,0,-54,2036,80,-10,-15,4,179,0,0,0,0,0,0,0,0,0,0,0,
0,0,-54,2036,80,-9,-18,4,177,0,0,0,0,0,0,0,0,0,0,0,
0,0,-56,2042,79,-9,-19,5,180,0,0,0,0,0,0,0,0,0,0,0,
0,0,-50,2040,76,-9,-19,5,181,0,0,0,0,0,0,0,0,0,0,0,
0,0,-47,2037,76,-9,-18,6,183,0,0,0,0,0,0,0,0,0,0,0,
0,0,-50,2041,75,-9,-16,7,186,0,0,0,0,0,0,0,0,0,0,0,
0,0,-46,2040,76,-4,-17,8,195,0,0,0,0,0,0,0,0,0,0,0,
0,0,-56,2043,80,-7,-19,5,184,0,0,0,0,0,0,0,0,0,0,0,
0,0,-53,2037,72,-9,-21,1,165,0,0,0,0,0,0,0,0,0,0,0,
0,0,-52,2044,75,-11,-19,1,176,0,0,0,0,0,0,0,0,0,0,0,
0,0,-46,2049,86,-7,-17,4,208,0,0,0,0,0,0,0,0,0,0,0,
0,0,-50,2035,77,-4,-18,7,185,0,0,0,0,0,0,0,0,0,0,0,
0,0,-55,2045,79,-9,-19,4,183,0,0,0,0,0,0,0,0,0,0,0,
0,0,-46,2043,75,-8,-17,6,191,0,0,0,0,0,0,0,0,0,0,0,
0,0,-56,2037,80,-10,-21,8,176,0,0,0,0,0,0,0,0,0,0,0,
0,0,-49,2049,77,-10,-17,1,190,0,0,0,0,0,0,0,0,0,0,0,
0,0,-50,2041,85,-7,-18,7,196,0,0,0,0,0,0,0,0,0,0,0,
0,0,-52,2039,81,-7,-18,7,188,0,0,0,0,0,0,0,0,0,0,0,
0,0,-50,2033,75,-8,-21,5,172,0,0,0,0,0,0,0,0,0,0,0,
0,0,-50,2040,80,-11,-18,10,189,0,0,0,0,0,0,0,0,0,0,0,
0,0,-47,2046,79,-8,-21,5,192,0,0,0,0,0,0,0,0,0,0,0,
0,0,-48,2034,79,-10,-20,5,178,0,0,0,0,0,0,0,0,0,0,0,
0,0,-53,2042,79,-8,-17,7,188,0,0,0,0,0,0,0,0,0,0,0,
0,0,-55,2038,79,-10,-18,4,176,0,0,0,0,0,0,0,0,0,0,0,
0,0,-48,2043,86,-5,-20,4,198,0,0,0,0,0,0,0,0,0,0,0,
0,0,-48,2037,76,-7,-17,5,184,0,0,0,0,0,0,0,0,0,0,0,
0,0,-49,2044,77,-8,-19,7,190,0,0,0,0,0,0,0,0,0,0,0,
0,0,-51,2041,78,-9,-18,6,185,0,0,0,0,0,0,0,0,0,0,0,
0,0,-51,2044,77,-9,-18,1,182,0,0,0,0,0,0,0,0,0,0,0,
0,0,-50,2037,76,-7,-20,4,178,0,0,0,0,0,0,0,0,0,0,0,
0,0,-54,2036,77,-7,-15,7,182,0,0,0,0,0,0,0,0,0,0,0,
0,0,-50,2041,87,-8,-18,2,192,0,0,0,0,0,0,0,0,0,0,0,
0,0,-57,2035,82,-7,-18,7,180,0,0,0,0,0,0,0,0,0,0,0,
0,0,-50,2040,87,-9,-18,6,194,0,0,0,0,0,0,0,0,0,0,0,
0,0,-58,2038,78,-8,-20,6,174,0,0,0,0,0,0,0,0,0,0,0,
0,0,-48,2044,78,-7,-18,6,193,0,0,0,0,0,0,0,0,0,0,0,
0,0,-52,2042,85,-6,-19,9,197,0,0,0,0,0,0,0,0,0,0,0,
0,0,-46,2041,76,-9,-19,5,186,0,0,0,0,0,0,0,0,0,0,0,
0,0,-52,2040,75,-5,-19,5,182,0,0,0,0,0,0,0,0,0,0,0,
0,0,-48,2048,79,-8,-20,8,198,0,0,0,0,0,0,0,0,0,0,0,
0,0,-53,2033,84,-10,-17,4,179,0,0,0,0,0,0,0,0,0,0,0,
0,0,-52,2046,82,-8,-20,4,190,0,0,0,0,0,0,0,0,0,0,0,
0,0,-49,2041,72,-7,-18,6,183,0,0,0,0,0,0,0,0,0,0,0,
0,0,-54,2044,85,-7,-20,3,189,0,0,0,0,0,0,0,0,0,0,0,
0,0,-50,2038,81,-7,-20,4,184,0,0,0,0,0,0,0,0,0,0,0,
0,0,-53,2038,76,-6,-20,6,179,0,0,0,0,0,0,0,0,0,0,0,
0,0,-48,2039,77,-11,-17,8,186,0,0,0,0,0,0,0,0,0,0,0,
0,0,-54,2037,74,-6,-20,5,174,0,0,0,0,0,0,0,0,0,0,0,
0,0,-50,2043,76,-10,-18,6,185,0,0,0,0,0,0,0,0,0,0,0,
0,0,-55,2041,83,-11,-20,5,181,0,0,0,0,0,0,0,0,0,0,0,
0,0,-45,2043,78,-5,-17,6,198,0,0,0,0,0,0,0,0,0,0,0,
0,0,-53,2039,70,-8,-20,6,172,0,0,0,0,0,0,0,0,0,0,0,
0,0,-46,2037,84,-4,-18,5,196,0,0,0,0,0,0,0,0,0,0,0,
0,0,-53,2041,71,-8,-17,5,177,0,0,0,0,0,0,0,0,0,0,0,
0,0,-52,2043,78,-6,-21,8,188,0,0,0,0,0,0,0,0,0,0,0,
0,0,-47,2040,77,-9,-19,5,185,0,0,0,0,0,0,0,0,0,0,0,
0,0,-48,2045,77,-10,-17,2,187,0,0,0,0,0,0,0,0,0,0,0,
0,0,-54,2043,84,-6,-21,5,189,0,0,0,0,0,0,0,0,0,0,0,
0,0,-58,2038,79,-5,-18,7,181,0,0,0,0,0,0,0,0,0,0,0,
0,0,-48,2050,79,-12,-18,4,194,0,0,0,0,0,0,0,0,0,0,0,
0,0,-51,2044,86,-11,-20,5,191,0,0,0,0,0,0,0,0,0,0,0,
0,0,-45,2038,81,-8,-18,8,194,0,0,0,0,0,0,0,0,0,0,0,
0,0,-50,2046,80,-6,-18,4,194,0,0,0,0,0,0,0,0,0,0,0,
0,0,-49,2048,86,-9,-18,9,206,0,0,0,0,0,0,0,0,0,0,0,
0,0,-50,2036,77,-9,-17,1,176,0,0,0,0,0,0,0,0,0,0,0,
0,0,-53,2042,82,-8,-22,7,186,0,0,0,0,0,0,0,0,0,0,0,
0,0,-54,2046,77,-9,-20,2,180,0,0,0,0,0,0,0,0,0,0,0,
0,0,-59,2038,80,-6,-18,7,180,0,0,0,0,0,0,0,0,0,0,0,
0,0,-49,2041,78,-7,-16,4,189,0,0,0,0,0,0,0,0,0,0,0,
0,0,-48,2046,85,-8,-21,4,196,0,0,0,0,0,0,0,0,0,0,0,
0,0,-51,2040,77,-10,-18,10,186,0,0,0,0,0,0,0,0,0,0,0,
0,0,-51,2043,76,-9,-17,6,186,0,0,0,0,0,0,0,0,0,0,0,
0,0,-53,2040,79,-9,-16,2,181,0,0,0,0,0,0,0,0,0,0,0,
0,0,-49,2045,79,-9,-18,5,191,0,0,0,0,0,0,0,0,0,0,0,
0,0,-49,2037,82,-8,-21,4,183,0,0,0,0,0,0,0,0,0,0,0,
0,0,-52,2037,77,-10,-17,2,175,0,0,0,0,0,0,0,0,0,0,0,
0,0,-48,2035,83,-9,-18,6,187,0,0,0,0,0,0,0,0,0,0,0,
0,0,-51,2039,79,-9,-20,7,183,0,0,0,0,0,0,0,0,0,0,0,
0,0,-46,2042,81,-7,-19,6,195,0,0,0,0,0,0,0,0,0,0,0,
0,0,-53,2037,78,-11,-20,4,173,0,0,0,0,0,0,0,0,0,0,0,
0,0,-56,2040,81,-10,-17,3,179,0,0,0,0,0,0,0,0,0,0,0,
0,0,-55,2038,81,-12,-17,7,180,0,0,0,0,0,0,0,0,0,0,0,
0,0,-50,2039,81,-8,-16,7,191,0,0,0,0,0,0,0,0,0,0,0,
0,0,-47,2036,81,-9,-20,5,184,0,0,0,0,0,0,0,0,0,0,0,
0,0,-50,2044,73,-7,-19,4,183,0,0,0,0,0,0,0,0,0,0,0,
0,0,-51,2039,79,-10,-20,7,182,0,0,0,0,0,0,0,0,0,0,0,
0,0,-51,2043,83,-9,-22,8,190,0,0,0,0,0,0,0,0,0,0,0,
0,0,-51,2036,83,-7,-19,5,185,0,0,0,0,0,0,0,0,0,0,0,
0,0,-50,2040,79,-8,-18,5,186,0,0,0,0,0,0,0,0,0,0,0,
0,0,-50,2039,76,-11,-18,5,179,0,0,0,0,0,0,0,0,0,0,0,
0,0,-42,2029,78,-8,-18,2,179,0,0,0,0,0,0,0,0,0,0,0,
0,0,-51,2044,82,-11,-19,4,187,0,0,0,0,0,0,0,0,0,0,0,
0,0,-48,2044,78,-7,-17,7,195,0,0,0,0,0,0,0,0,0,0,0,
0,0,-47,2043,84,-13,-17,3,191,0,0,0,0,0,0,0,0,0,0,0,
0,0,-45,2047,78,-8,-19,9,200,0,0,0,0,0,0,0,0,0,0,0,
0,0,-53,2046,81,-11,-17,2,186,0,0,0,0,0,0,0,0,0,0,0,
0,0,-51,2041,76,-10,-17,6,183,0,0,0,0,0,0,0,0,0,0,0,
0,0,-54,2038,83,-8,-19,4,182,0,0,0,0,0,0,0,0,0,0,0,
0,0,-45,2047,84,-8,-18,3,201,0,0,0,0,0,0,0,0,0,0,0,
0,0,-49,2039,80,-9,-19,5,185,0,0,0,0,0,0,0,0,0,0,0,
0,0,-50,2040,72,-5,-19,7,183,0,0,0,0,0,0,0,0,0,0,0,
0,0,-51,2040,82,-5,-19,8,193,0,0,0,0,0,0,0,0,0,0,0,
0,0,-52,2034,75,-9,-20,5,171,0,0,0,0,0,0,0,0,0,0,0,
0,0,-52,2034,75,-9,-20,5,171,0,0,0,0,0,0,0,0,0,0,0,
0,0,-43,2038,80,-8,-19,8,194,0,0,0,0,0,0,0,0,0,0,0,
0,0,-57,2038,80,-9,-18,6,178,0,0,0,0,0,0,0,0,0,0,0,
0,0,-56,2031,78,-4,-18,5,174,0,0,0,0,0,0,0,0,0,0,0,
0,0,-50,2044,70,-9,-17,3,179,0,0,0,0,0,0,0,0,0,0,0,
0,0,-50,2044,70,-6,-17,5,184,0,0,0,0,0,0,0,0,0,0,0,
0,0,-55,2044,72,-8,-20,4,175,0,0,0,0,0,0,0,0,0,0,0,
0,0,-54,2035,81,-10,-19,2,173,0,0,0,0,0,0,0,0,0,0,0,
0,0,-51,2041,74,-9,-18,3,178,0,0,0,0,0,0,0,0,0,0,0,
0,0,-51,2041,74,-9,-19,4,178,0,0,0,0,0,0,0,0,0,0,0,
0,0,-52,2042,80,-8,-16,9,193,0,0,0,0,0,0,0,0,0,0,0,
0,0,-60,2033,80,-11,-16,3,167,0,0,0,0,0,0,0,0,0,0,0,
0,0,-47,2044,74,-6,-20,6,189,0,0,0,0,0,0,0,0,0,0,0,
0,0,-51,2036,74,-7,-16,6,180,0,0,0,0,0,0,0,0,0,0,0,
0,0,-53,2040,81,-8,-21,6,183,0,0,0,0,0,0,0,0,0,0,0,
0,0,-50,2037,84,-10,-18,8,189,0,0,0,0,0,0,0,0,0,0,0,
0,0,-53,2039,77,-7,-18,8,184,0,0,0,0,0,0,0,0,0,0,0,
0,0,-52,2034,79,-13,-19,6,173,0,0,0,0,0,0,0,0,0,0,0,
0,0,-51,2044,76,-6,-17,4,188,0,0,0,0,0,0,0,0,0,0,0,
0,0,-54,2045,87,-8,-17,3,194,0,0,0,0,0,0,0,0,0,0,0,
0,0,-51,2037,81,-7,-19,6,185,0,0,0,0,0,0,0,0,0,0,0,
0,0,-53,2040,79,-8,-18,8,186,0,0,0,0,0,0,0,0,0,0,0,
0,0,-49,2041,79,-9,-18,7,189,0,0,0,0,0,0,0,0,0,0,0,
0,0,-50,2044,84,-10,-17,8,197,0,0,0,0,0,0,0,0,0,0,0,
0,0,-58,2047,79,-10,-19,7,184,0,0,0,0,0,0,0,0,0,0,0,
0,0,-49,2040,85,-8,-19,5,192,0,0,0,0,0,0,0,0,0,0,0,
0,0,-49,2039,78,-7,-19,1,181,0,0,0,0,0,0,0,0,0,0,0,
0,0,-54,2041,76,-11,-19,4,175,0,0,0,0,0,0,0,0,0,0,0,
0,0,-50,2039,79,-8,-16,3,185,0,0,0,0,0,0,0,0,0,0,0,
0,0,-48,2042,79,-12,-18,5,186,0,0,0,0,0,0,0,0,0,0,0,
0,0,-43,2045,81,-7,-18,8,204,0,0,0,0,0,0,0,0,0,0,0,
0,0,-55,2035,87,-7,-19,6,185,0,0,0,0,0,0,0,0,0,0,0,
0,0,-48,2037,85,-9,-17,4,190,0,0,0,0,0,0,0,0,0,0,0,
0,0,-48,2043,77,-6,-16,6,194,0,0,0,0,0,0,0,0,0,0,0,
0,0,-52,2043,77,-10,-19,3,180,0,0,0,0,0,0,0,0,0,0,0,
0,0,-57,2037,76,-8,-17,7,176,0,0,0,0,0,0,0,0,0,0,0,
0,0,-57,2040,80,-7,-18,10,186,0,0,0,0,0,0,0,0,0,0,0,
0,0,-45,2040,76,-8,-14,7,194,0,0,0,0,0,0,0,0,0,0,0,
0,0,-53,2049,69,-10,-22,3,175,0,0,0,0,0,0,0,0,0,0,0,
0,0,-51,2039,81,-7,-17,4,187,0,0,0,0,0,0,0,0,0,0,0,
0,0,-56,2038,84,-7,-21,4,180,0,0,0,0,0,0,0,0,0,0,0,
0,0,-49,2045,77,-10,-19,5,187,0,0,0,0,0,0,0,0,0,0,0,
0,0,-50,2040,78,-6,-19,5,186,0,0,0,0,0,0,0,0,0,0,0,
0,0,-57,2031,79,-9,-19,4,167,0,0,0,0,0,0,0,0,0,0,0,
0,0,-51,2041,78,-6,-19,9,190,0,0,0,0,0,0,0,0,0,0,0,
0,0,-44,2042,86,-8,-19,4,199,0,0,0,0,0,0,0,0,0,0,0,
0,0,-52,2044,84,-11,-19,4,188,0,0,0,0,0,0,0,0,0,0,0,
0,0,-48,2039,84,-10,-21,3,185,0,0,0,0,0,0,0,0,0,0,0,
0,0,-53,2047,84,-10,-20,6,192,0,0,0,0,0,0,0,0,0,0,0,
0,0,-49,2038,79,-9,-18,4,183,0,0,0,0,0,0,0,0,0,0,0,
0,0,-53,2035,79,-7,-17,4,179,0,0,0,0,0,0,0,0,0,0,0,
0,0,-52,2039,76,-9,-18,10,184,0,0,0,0,0,0,0,0,0,0,0,
0,0,-52,2049,75,-8,-18,5,190,0,0,0,0,0,0,0,0,0,0,0,
0,0,-47,2031,83,-9,-19,5,182,0,0,0,0,0,0,0,0,0,0,0,
0,0,-50,2033,79,-7,-18,5,180,0,0,0,0,0,0,0,0,0,0,0,
0,0,-50,2038,86,-9,-15,5,193,0,0,0,0,0,0,0,0,0,0,0,
0,0,-52,2044,84,-9,-18,9,196,0,0,0,0,0,0,0,0,0,0,0,
0,0,-52,2041,83,-9,-19,3,185,0,0,0,0,0,0,0,0,0,0,0,
0,0,-48,2036,75,-9,-15,6,183,0,0,0,0,0,0,0,0,0,0,0,
0,0,-49,2034,83,-10,-18,7,185,0,0,0,0,0,0,0,0,0,0,0,
0,0,-47,2045,77,-12,-18,1,184,0,0,0,0,0,0,0,0,0,0,0,
0,0,-54,2038,82,-8,-18,5,183,0,0,0,0,0,0,0,0,0,0,0,
0,0,-47,2048,82,-10,-17,5,200,0,0,0,0,0,0,0,0,0,0,0,
0,0,-50,2040,76,-9,-18,5,182,0,0,0,0,0,0,0,0,0,0,0,
0,0,-53,2042,81,-6,-18,7,191,0,0,0,0,0,0,0,0,0,0,0,
0,0,-51,2039,90,-7,-17,6,198,0,0,0,0,0,0,0,0,0,0,0,
0,0,-52,2037,88,-5,-16,4,194,0,0,0,0,0,0,0,0,0,0,0,
0,0,-60,2039,79,-7,-19,6,176,0,0,0,0,0,0,0,0,0,0,0,
0,0,-52,2037,79,-9,-19,7,181,0,0,0,0,0,0,0,0,0,0,0,
0,0,-47,2041,78,-10,-17,5,188,0,0,0,0,0,0,0,0,0,0,0,
0,0,-60,2035,78,-7,-19,7,172,0,0,0,0,0,0,0,0,0,0,0,
0,0,-56,2040,79,-9,-18,8,182,0,0,0,0,0,0,0,0,0,0,0,
0,0,-47,2042,73,-9,-19,6,184,0,0,0,0,0,0,0,0,0,0,0,
0,0,-55,2039,86,-4,-15,8,197,0,0,0,0,0,0,0,0,0,0,0,
0,0,-49,2046,77,-11,-18,6,189,0,0,0,0,0,0,0,0,0,0,0,
0,0,-48,2034,83,-9,-19,5,184,0,0,0,0,0,0,0,0,0,0,0,
0,0,-55,2047,84,-9,-18,6,193,0,0,0,0,0,0,0,0,0,0,0,
0,0,-50,2045,77,-7,-16,4,191,0,0,0,0,0,0,0,0,0,0,0,
0,0,-50,2045,85,-10,-20,7,195,0,0,0,0,0,0,0,0,0,0,0,
0,0,-51,2040,74,-9,-19,9,182,0,0,0,0,0,0,0,0,0,0,0,
0,0,-52,2032,75,-5,-21,7,174,0,0,0,0,0,0,0,0,0,0,0,
0,0,-52,2034,74,-10,-17,2,169,0,0,0,0,0,0,0,0,0,0,0,
0,0,-52,2038,76,-6,-18,6,182,0,0,0,0,0,0,0,0,0,0,0,
0,0,-59,2038,79,-10,-18,4,172,0,0,0,0,0,0,0,0,0,0,0,
0,0,-53,2040,77,-8,-19,5,180,0,0,0,0,0,0,0,0,0,0,0,
0,0,-50,2043,84,-11,-20,3,187,0,0,0,0,0,0,0,0,0,0,0,
0,0,-60,2035,81,-6,-18,7,177,0,0,0,0,0,0,0,0,0,0,0,
0,0,-49,2036,74,-9,-18,10,182,0,0,0,0,0,0,0,0,0,0,0,
0,0,-45,2038,78,-8,-19,5,187,0,0,0,0,0,0,0,0,0,0,0,
0,0,-51,2036,79,-6,-18,6,184,0,0,0,0,0,0,0,0,0,0,0,
0,0,-51,2042,83,-9,-18,8,193,0,0,0,0,0,0,0,0,0,0,0,
0,0,-51,2043,85,-7,-17,5,196,0,0,0,0,0,0,0,0,0,0,0,
0,0,-48,2041,73,-9,-18,5,182,0,0,0,0,0,0,0,0,0,0,0,
0,0,-48,2040,75,-9,-18,5,183,0,0,0,0,0,0,0,0,0,0,0,
0,0,-53,2038,83,-9,-21,5,181,0,0,0,0,0,0,0,0,0,0,0,
0,0,-46,2040,85,-10,-18,7,196,0,0,0,0,0,0,0,0,0,0,0,
0,0,-49,2041,80,-11,-17,3,185,0,0,0,0,0,0,0,0,0,0,0,
0,0,-52,2036,72,-4,-19,6,177,0,0,0,0,0,0,0,0,0,0,0,
0,0,-48,2037,86,-9,-15,9,198,0,0,0,0,0,0,0,0,0,0,0,
0,0,-47,2039,78,-9,-18,5,186,0,0,0,0,0,0,0,0,0,0,0,
0,0,-42,2037,76,-7,-20,7,189,0,0,0,0,0,0,0,0,0,0,0,
0,0,-57,2042,83,-10,-16,3,183,0,0,0,0,0,0,0,0,0,0,0,
0,0,-49,2039,74,-5,-19,5,183,0,0,0,0,0,0,0,0,0,0,0,
0,0,-53,2047,76,-7,-14,6,193,0,0,0,0,0,0,0,0,0,0,0,
0,0,-50,2042,75,-10,-17,7,185,0,0,0,0,0,0,0,0,0,0,0,
0,0,-44,2047,78,-6,-16,3,200,0,0,0,0,0,0,0,0,0,0,0,
0,0,-47,2040,69,-7,-19,6,180,0,0,0,0,0,0,0,0,0,0,0,
0,0,-57,2046,79,-9,-18,7,186,0,0,0,0,0,0,0,0,0,0,0,
0,0,-58,2044,81,-7,-18,7,187,0,0,0,0,0,0,0,0,0,0,0,
0,0,-58,2044,81,-7,-18,7,187,0,0,0,0,0,0,0,0,0,0,0,
0,0,-52,2043,71,-10,-20,4,174,0,0,0,0,0,0,0,0,0,0,0,
0,0,-47,2050,74,-11,-16,8,197,0,0,0,0,0,0,0,0,0,0,0,
0,0,-51,2045,84,-7,-17,9,201,0,0,0,0,0,0,0,0,0,0,0,
0,0,-53,2040,78,-7,-20,7,183,0,0,0,0,0,0,0,0,0,0,0,
0,0,-49,2043,80,-7,-20,7,192,0,0,0,0,0,0,0,0,0,0,0,
0,0,-49,2043,80,-4,-19,8,197,0,0,0,0,0,0,0,0,0,0,0,
0,0,-52,2040,78,-5,-17,5,187,0,0,0,0,0,0,0,0,0,0,0,
0,0,-52,2044,82,-9,-19,5,189,0,0,0,0,0,0,0,0,0,0,0,
0,0,-47,2045,84,-8,-18,4,198,0,0,0,0,0,0,0,0,0,0,0,
0,0,-47,2045,84,-7,-17,6,202,0,0,0,0,0,0,0,0,0,0,0,
0,0,-55,2039,80,-12,-18,4,176,0,0,0,0,0,0,0,0,0,0,0,
0,0,-59,2034,87,-8,-21,3,174,0,0,0,0,0,0,0,0,0,0,0,
0,0,-48,2044,76,-9,-19,5,187,0,0,0,0,0,0,0,0,0,0,0,
0,0,-53,2035,79,-6,-18,6,181,0,0,0,0,0,0,0,0,0,0,0,
0,0,-47,2049,83,-8,-20,4,200,0,0,0,0,0,0,0,0,0,0,0,
0,0,-50,2036,79,-8,-17,5,183,0,0,0,0,0,0,0,0,0,0,0,
0,0,-51,2038,81,-11,-17,4,182,0,0,0,0,0,0,0,0,0,0,0,
0,0,-49,2037,80,-13,-18,4,179,0,0,0,0,0,0,0,0,0,0,0,
0,0,-53,2041,70,-8,-19,3,172,0,0,0,0,0,0,0,0,0,0,0,
0,0,-50,2039,82,-10,-22,7,184,0,0,0,0,0,0,0,0,0,0,0,
0,0,-51,2033,76,-8,-17,10,181,0,0,0,0,0,0,0,0,0,0,0,
0,0,-48,2042,82,-6,-20,7,195,0,0,0,0,0,0,0,0,0,0,0,
0,0,-47,2033,80,-10,-16,5,183,0,0,0,0,0,0,0,0,0,0,0,
0,0,-49,2044,82,-8,-17,5,195,0,0,0,0,0,0,0,0,0,0,0,
0,0,-50,2036,80,-11,-20,9,182,0,0,0,0,0,0,0,0,0,0,0,
0,0,-50,2040,78,-9,-18,9,188,0,0,0,0,0,0,0,0,0,0,0,
0,0,-47,2042,73,-8,-18,4,184,0,0,0,0,0,0,0,0,0,0,0,
0,0,-51,2045,81,-6,-22,8,193,0,0,0,0,0,0,0,0,0,0,0,
0,0,-52,2040,79,-8,-19,7,185,0,0,0,0,0,0,0,0,0,0,0,
0,0,-55,2037,81,-5,-21,8,183,0,0,0,0,0,0,0,0,0,0,0,
0,0,-49,2042,79,-9,-18,3,186,0,0,0,0,0,0,0,0,0,0,0,
0,0,-52,2042,79,-11,-19,8,185,0,0,0,0,0,0,0,0,0,0,0,
0,0,-50,2041,86,-6,-17,5,197,0,0,0,0,0,0,0,0,0,0,0,
0,0,-51,2043,81,-5,-16,4,194,0,0,0,0,0,0,0,0,0,0,0,
0,0,-46,2043,75,-7,-17,4,190,0,0,0,0,0,0,0,0,0,0,0,
0,0,-53,2040,76,-10,-17,7,181,0,0,0,0,0,0,0,0,0,0,0,
0,0,-50,2038,75,-5,-20,6,182,0,0,0,0,0,0,0,0,0,0,0,
0,0,-47,2041,79,-4,-16,7,198,0,0,0,0,0,0,0,0,0,0,0,
0,0,-48,2044,80,-9,-18,4,191,0,0,0,0,0,0,0,0,0,0,0,
0,0,-57,2041,79,-10,-16,7,182,0,0,0,0,0,0,0,0,0,0,0,
0,0,-56,2041,75,-11,-16,5,176,0,0,0,0,0,0,0,0,0,0,0,
0,0,-47,2039,77,-7,-17,6,189,0,0,0,0,0,0,0,0,0,0,0,
0,0,-50,2037,75,-8,-19,3,176,0,0,0,0,0,0,0,0,0,0,0,
0,0,-55,2042,86,-7,-22,7,189,0,0,0,0,0,0,0,0,0,0,0,
0,0,-52,2044,83,-8,-20,5,190,0,0,0,0,0,0,0,0,0,0,0,
0,0,-52,2039,75,-9,-17,7,181,0,0,0,0,0,0,0,0,0,0,0,
0,0,-52,2037,75,-10,-20,6,174,0,0,0,0,0,0,0,0,0,0,0,
0,0,-49,2037,78,-5,-19,6,186,0,0,0,0,0,0,0,0,0,0,0,
0,0,-54,2039,77,-12,-18,4,174,0,0,0,0,0,0,0,0,0,0,0,
0,0,-44,2038,71,-8,-16,6,185,0,0,0,0,0,0,0,0,0,0,0,
0,0,-45,2040,83,-8,-15,8,201,0,0,0,0,0,0,0,0,0,0,0,
0,0,-50,2041,91,-9,-18,9,202,0,0,0,0,0,0,0,0,0,0,0,
0,0,-58,2034,84,-12,-17,7,176,0,0,0,0,0,0,0,0,0,0,0,
0,0,-49,2037,79,-7,-19,6,185,0,0,0,0,0,0,0,0,0,0,0,
0,0,-52,2034,71,-7,-17,6,173,0,0,0,0,0,0,0,0,0,0,0,
0,0,-51,2041,77,-8,-20,5,182,0,0,0,0,0,0,0,0,0,0,0,
0,0,-53,2042,80,-9,-18,3,183,0,0,0,0,0,0,0,0,0,0,0,
0,0,-53,2045,85,-7,-19,8,197,0,0,0,0,0,0,0,0,0,0,0,
0,0,-51,2033,73,-10,-16,4,171,0,0,0,0,0,0,0,0,0,0,0,
0,0,-49,2046,83,-8,-19,7,198,0,0,0,0,0,0,0,0,0,0,0,
0,0,-50,2040,81,-9,-16,10,194,0,0,0,0,0,0,0,0,0,0,0,
0,0,-53,2038,82,-10,-18,6,183,0,0,0,0,0,0,0,0,0,0,0,
0,0,-57,2044,78,-8,-17,5,183,0,0,0,0,0,0,0,0,0,0,0,
0,0,-44,2039,73,-11,-21,2,176,0,0,0,0,0,0,0,0,0,0,0,
0,0,-47,2037,78,-8,-18,6,186,0,0,0,0,0,0,0,0,0,0,0,
0,0,-51,2042,84,-10,-19,7,191,0,0,0,0,0,0,0,0,0,0,0,
0,0,-51,2040,83,-5,-21,5,189,0,0,0,0,0,0,0,0,0,0,0,
0,0,-52,2046,79,-7,-18,5,191,0,0,0,0,0,0,0,0,0,0,0,
0,0,-49,2043,78,-7,-20,4,187,0,0,0,0,0,0,0,0,0,0,0,
0,0,-55,2040,80,-8,-17,7,185,0,0,0,0,0,0,0,0,0,0,0,
0,0,-50,2037,75,-6,-20,6,180,0,0,0,0,0,0,0,0,0,0,0,
0,0,-51,2030,76,-9,-15,6,175,0,0,0,0,0,0,0,0,0,0,0,
0,0,-55,2041,78,-11,-21,7,177,0,0,0,0,0,0,0,0,0,0,0,
0,0,-51,2042,78,-6,-20,3,184,0,0,0,0,0,0,0,0,0,0,0,
0,0,-48,2042,82,-7,-17,8,198,0,0,0,0,0,0,0,0,0,0,0,
0,0,-43,2043,82,-11,-19,6,196,0,0,0,0,0,0,0,0,0,0,0,
0,0,-55,2038,78,-8,-21,9,179,0,0,0,0,0,0,0,0,0,0,0,
0,0,-47,2043,73,-6,-19,3,185,0,0,0,0,0,0,0,0,0,0,0,
0,0,-50,2038,86,-9,-18,3,188,0,0,0,0,0,0,0,0,0,0,0,
0,0,-48,2040,73,-8,-20,4,179,0,0,0,0,0,0,0,0,0,0,0,
0,0,-56,2034,75,-7,-17,6,173,0,0,0,0,0,0,0,0,0,0,0,
0,0,-51,2039,81,-10,-18,1,180,0,0,0,0,0,0,0,0,0,0,0,
0,0,-53,2037,77,-10,-19,6,176,0,0,0,0,0,0,0,0,0,0,0,
0,0,-50,2038,75,-10,-20,5,176,0,0,0,0,0,0,0,0,0,0,0,
0,0,-49,2033,83,-8,-19,6,184,0,0,0,0,0,0,0,0,0,0,0,
0,0,-49,2040,84,-8,-18,3,190,0,0,0,0,0,0,0,0,0,0,0,
0,0,-50,2037,78,-7,-15,5,186,0,0,0,0,0,0,0,0,0,0,0,
0,0,-51,2037,82,-8,-16,10,192,0,0,0,0,0,0,0,0,0,0,0,
0,0,-52,2037,73,-8,-23,6,171,0,0,0,0,0,0,0,0,0,0,0,
0,0,-52,2045,76,-9,-19,2,181,0,0,0,0,0,0,0,0,0,0,0,
0,0,-53,2049,73,-10,-20,5,183,0,0,0,0,0,0,0,0,0,0,0,
0,0,-54,2049,83,-6,-17,5,199,0,0,0,0,0,0,0,0,0,0,0,
0,0,-53,2039,80,-7,-18,6,185,0,0,0,0,0,0,0,0,0,0,0,
0,0,-53,2037,79,-11,-18,3,175,0,0,0,0,0,0,0,0,0,0,0,
0,0,-54,2038,83,-7,-18,11,191,0,0,0,0,0,0,0,0,0,0,0,
0,0,-49,2044,86,-10,-19,6,196,0,0,0,0,0,0,0,0,0,0,0,
0,0,-54,2039,84,-10,-16,2,183,0,0,0,0,0,0,0,0,0,0,0,
0,0,-51,2038,76,-10,-20,3,174,0,0,0,0,0,0,0,0,0,0,0,
0,0,-53,2039,77,-8,-21,9,181,0,0,0,0,0,0,0,0,0,0,0,
0,0,-51,2040,77,-10,-19,6,181,0,0,0,0,0,0,0,0,0,0,0,
0,0,-52,2039,77,-7,-17,8,186,0,0,0,0,0,0,0,0,0,0,0,
0,0,-48,2037,81,-10,-15,6,189,0,0,0,0,0,0,0,0,0,0,0,
0,0,-50,2040,80,-8,-19,9,190,0,0,0,0,0,0,0,0,0,0,0,
0,0,-55,2043,76,-9,-17,8,184,0,0,0,0,0,0,0,0,0,0,0,
0,0,-49,2039,80,-6,-18,3,187,0,0,0,0,0,0,0,0,0,0,0,
0,0,-53,2039,75,-10,-19,7,177,0,0,0,0,0,0,0,0,0,0,0,
0,0,-58,2044,80,-11,-19,5,179,0,0,0,0,0,0,0,0,0,0,0,
0,0,-55,2037,79,-7,-16,11,187,0,0,0,0,0,0,0,0,0,0,0,
0,0,-51,2041,75,-7,-13,3,186,0,0,0,0,0,0,0,0,0,0,0,
0,0,-51,2041,75,-7,-13,3,186,0,0,0,0,0,0,0,0,0,0,0,
0,0,-50,2042,80,-10,-19,4,185,0,0,0,0,0,0,0,0,0,0,0,
0,0,-53,2040,83,-9,-18,7,188,0,0,0,0,0,0,0,0,0,0,0,
0,0,-53,2032,79,-11,-22,5,168,0,0,0,0,0,0,0,0,0,0,0,
0,0,-53,2032,79,-11,-22,5,168,0,0,0,0,0,0,0,0,0,0,0,
0,0,-48,2036,80,-8,-19,4,183,0,0,0,0,0,0,0,0,0,0,0,
0,0,-53,2042,76,-9,-19,5,180,0,0,0,0,0,0,0,0,0,0,0,
0,0,-51,2041,81,-11,-16,7,189,0,0,0,0,0,0,0,0,0,0,0,
0,0,-51,2041,81,-6,-18,8,193,0,0,0,0,0,0,0,0,0,0,0,
0,0,-49,2040,80,-9,-16,6,190,0,0,0,0,0,0,0,0,0,0,0,
0,0,-54,2037,71,-9,-21,5,167,0,0,0,0,0,0,0,0,0,0,0,
0,0,-54,2039,81,-6,-17,7,188,0,0,0,0,0,0,0,0,0,0,0,
0,0,-48,2045,75,-11,-19,5,185,0,0,0,0,0,0,0,0,0,0,0,
0,0,-49,2041,76,-11,-18,6,183,0,0,0,0,0,0,0,0,0,0,0,
0,0,-51,2042,78,-9,-20,5,183,0,0,0,0,0,0,0,0,0,0,0,
0,0,-51,2040,80,-8,-21,6,184,0,0,0,0,0,0,0,0,0,0,0,
0,0,-53,2040,88,-8,-18,6,193,0,0,0,0,0,0,0,0,0,0,0,
0,0,-54,2037,83,-7,-18,5,184,0,0,0,0,0,0,0,0,0,0,0,
0,0,-52,2035,79,-7,-17,11,187,0,0,0,0,0,0,0,0,0,0,0,
0,0,-56,2042,77,-10,-20,5,176,0,0,0,0,0,0,0,0,0,0,0,
0,0,-54,2039,77,-7,-18,6,181,0,0,0,0,0,0,0,0,0,0,0,
0,0,-49,2048,71,-9,-17,6,189,0,0,0,0,0,0,0,0,0,0,0,
0,0,-57,2042,84,-10,-20,8,185,0,0,0,0,0,0,0,0,0,0,0,
0,0,-46,2040,85,-4,-20,7,200,0,0,0,0,0,0,0,0,0,0,0,
0,0,-47,2041,81,-12,-18,6,189,0,0,0,0,0,0,0,0,0,0,0,
0,0,-48,2041,82,-5,-19,6,195,0,0,0,0,0,0,0,0,0,0,0,
0,0,-49,2039,85,-8,-19,5,191,0,0,0,0,0,0,0,0,0,0,0,
0,0,-43,2041,75,-12,-18,5,186,0,0,0,0,0,0,0,0,0,0,0,
0,0,-50,2044,79,-7,-19,9,194,0,0,0,0,0,0,0,0,0,0,0,
0,0,-43,2047,84,-10,-19,5,202,0,0,0,0,0,0,0,0,0,0,0,
0,0,-59,2042,78,-8,-16,3,178,0,0,0,0,0,0,0,0,0,0,0,
0,0,-53,2047,77,-8,-21,5,185,0,0,0,0,0,0,0,0,0,0,0,
0,0,-53,2047,81,-5,-20,4,192,0,0,0,0,0,0,0,0,0,0,0,
0,0,-60,2044,74,-9,-17,7,177,0,0,0,0,0,0,0,0,0,0,0,
0,0,-54,2036,81,-9,-17,7,182,0,0,0,0,0,0,0,0,0,0,0,
0,0,-49,2041,86,-8,-21,8,195,0,0,0,0,0,0,0,0,0,0,0,
0,0,-51,2037,80,-11,-19,6,180,0,0,0,0,0,0,0,0,0,0,0,
0,0,-51,2044,75,-9,-17,3,183,0,0,0,0,0,0,0,0,0,0,0,
0,0,-54,2042,78,-12,-18,4,178,0,0,0,0,0,0,0,0,0,0,0,
0,0,-60,2036,84,-6,-14,4,182,0,0,0,0,0,0,0,0,0,0,0,
0,0,-58,2041,74,-8,-19,4,172,0,0,0,0,0,0,0,0,0,0,0,
0,0,-54,2044,79,-11,-17,8,187,0,0,0,0,0,0,0,0,0,0,0,
0,0,-51,2035,76,-8,-19,9,180,0,0,0,0,0,0,0,0,0,0,0,
0,0,-49,2044,75,-10,-18,7,187,0,0,0,0,0,0,0,0,0,0,0,
0,0,-48,2038,67,-10,-17,6,174,0,0,0,0,0,0,0,0,0,0,0,
0,0,-50,2042,86,-8,-19,5,194,0,0,0,0,0,0,0,0,0,0,0,
0,0,-54,2045,79,-6,-16,8,194,0,0,0,0,0,0,0,0,0,0,0,
0,0,-54,2037,80,-11,-21,4,173,0,0,0,0,0,0,0,0,0,0,0,
0,0,-52,2036,82,-10,-20,8,182,0,0,0,0,0,0,0,0,0,0,0,
0,0,-49,2039,77,-8,-18,8,187,0,0,0,0,0,0,0,0,0,0,0,
0,0,-52,2033,70,-10,-20,7,166,0,0,0,0,0,0,0,0,0,0,0,
0,0,-56,2036,81,-7,-17,6,181,0,0,0,0,0,0,0,0,0,0,0,
0,0,-51,2044,73,-8,-16,6,186,0,0,0,0,0,0,0,0,0,0,0,
0,0,-51,2045,77,-11,-20,6,184,0,0,0,0,0,0,0,0,0,0,0,
0,0,-48,2043,78,-9,-17,2,187,0,0,0,0,0,0,0,0,0,0,0,
0,0,-58,2042,75,-8,-16,1,174,0,0,0,0,0,0,0,0,0,0,0,
0,0,-42,2039,77,-10,-15,6,193,0,0,0,0,0,0,0,0,0,0,0,
0,0,-48,2037,78,-11,-20,4,178,0,0,0,0,0,0,0,0,0,0,0,
0,0,-51,2035,75,-8,-19,7,177,0,0,0,0,0,0,0,0,0,0,0,
0,0,-50,2038,77,-7,-18,6,184,0,0,0,0,0,0,0,0,0,0,0,
0,0,-51,2037,82,-6,-19,7,188,0,0,0,0,0,0,0,0,0,0,0,
0,0,-47,2041,81,-8,-18,6,193,0,0,0,0,0,0,0,0,0,0,0,
0,0,-49,2038,80,-8,-18,3,184,0,0,0,0,0,0,0,0,0,0,0,
0,0,-50,2041,85,-8,-18,6,194,0,0,0,0,0,0,0,0,0,0,0,
0,0,-48,2038,83,-9,-18,4,188,0,0,0,0,0,0,0,0,0,0,0,
0,0,-56,2045,79,-7,-19,6,186,0,0,0,0,0,0,0,0,0,0,0,
0,0,-50,2042,78,-7,-18,7,190,0,0,0,0,0,0,0,0,0,0,0,
0,0,-50,2042,83,-8,-21,6,190,0,0,0,0,0,0,0,0,0,0,0,
0,0,-50,2041,88,-10,-16,4,195,0,0,0,0,0,0,0,0,0,0,0,
0,0,-53,2038,80,-6,-20,7,184,0,0,0,0,0,0,0,0,0,0,0,
0,0,-52,2041,76,-9,-20,5,179,0,0,0,0,0,0,0,0,0,0,0,
0,0,-49,2043,75,-11,-16,4,184,0,0,0,0,0,0,0,0,0,0,0,
0,0,-49,2041,71,-10,-19,7,179,0,0,0,0,0,0,0,0,0,0,0,
0,0,-48,2043,80,-10,-18,6,191,0,0,0,0,0,0,0,0,0,0,0,
0,0,-53,2036,74,-12,-20,6,169,0,0,0,0,0,0,0,0,0,0,0,
0,0,-53,2044,80,-7,-19,5,188,0,0,0,0,0,0,0,0,0,0,0,
0,0,-55,2048,78,-8,-17,8,193,0,0,0,0,0,0,0,0,0,0,0,
0,0,-51,2041,82,-9,-17,4,188,0,0,0,0,0,0,0,0,0,0,0,
0,0,-54,2041,85,-9,-18,4,187,0,0,0,0,0,0,0,0,0,0,0,
0,0,-48,2044,79,-10,-17,8,194,0,0,0,0,0,0,0,0,0,0,0,
0,0,-47,2043,80,-8,-19,8,195,0,0,0,0,0,0,0,0,0,0,0,
0,0,-60,2039,80,-6,-19,6,178,0,0,0,0,0,0,0,0,0,0,0,
0,0,-54,2034,73,-9,-20,4,166,0,0,0,0,0,0,0,0,0,0,0,
0,0,-54,2040,85,-5,-17,5,192,0,0,0,0,0,0,0,0,0,0,0,
0,0,-52,2031,75,-7,-17,7,175,0,0,0,0,0,0,0,0,0,0,0,
0,0,-56,2040,75,-9,-16,5,177,0,0,0,0,0,0,0,0,0,0,0,
0,0,-43,2037,84,-8,-17,4,195,0,0,0,0,0,0,0,0,0,0,0,
0,0,-52,2046,77,-7,-19,6,189,0,0,0,0,0,0,0,0,0,0,0,
0,0,-47,2036,74,-10,-18,6,179,0,0,0,0,0,0,0,0,0,0,0,
0,0,-55,2040,80,-10,-18,4,179,0,0,0,0,0,0,0,0,0,0,0,
0,0,-54,2037,83,-11,-18,6,181,0,0,0,0,0,0,0,0,0,0,0,
0,0,-45,2036,83,-8,-20,3,187,0,0,0,0,0,0,0,0,0,0,0,
0,0,-49,2036,75,-6,-18,5,181,0,0,0,0,0,0,0,0,0,0,0,
0,0,-47,2042,83,-6,-20,6,196,0,0,0,0,0,0,0,0,0,0,0,
0,0,-54,2039,79,-9,-19,5,179,0,0,0,0,0,0,0,0,0,0,0,
0,0,-50,2038,72,-8,-22,8,176,0,0,0,0,0,0,0,0,0,0,0,
0,0,-53,2041,86,-5,-18,3,192,0,0,0,0,0,0,0,0,0,0,0,
0,0,-49,2040,85,-9,-15,8,198,0,0,0,0,0,0,0,0,0,0,0,
0,0,-56,2038,74,-4,-18,6,178,0,0,0,0,0,0,0,0,0,0,0,
0,0,-48,2036,83,-7,-18,6,190,0,0,0,0,0,0,0,0,0,0,0,
0,0,-53,2043,87,-6,-17,5,197,0,0,0,0,0,0,0,0,0,0,0,
0,0,-55,2040,82,-7,-18,8,188,0,0,0,0,0,0,0,0,0,0,0,
0,0,-51,2040,81,-7,-15,4,190,0,0,0,0,0,0,0,0,0,0,0,
0,0,-48,2045,76,-10,-16,2,187,0,0,0,0,0,0,0,0,0,0,0,
0,0,-50,2036,76,-4,-18,2,180,0,0,0,0,0,0,0,0,0,0,0,
0,0,-49,2037,77,-8,-18,6,183,0,0,0,0,0,0,0,0,0,0,0,
0,0,-50,2036,73,-8,-18,7,178,0,0,0,0,0,0,0,0,0,0,0,
0,0,-56,2037,81,-6,-16,8,186,0,0,0,0,0,0,0,0,0,0,0,
0,0,-53,2042,75,-13,-18,5,176,0,0,0,0,0,0,0,0,0,0,0,
0,0,-50,2044,79,-8,-17,7,193,0,0,0,0,0,0,0,0,0,0,0,
0,0,-54,2044,82,-8,-18,6,190,0,0,0,0,0,0,0,0,0,0,0,
0,0,-46,2040,77,-9,-19,4,185,0,0,0,0,0,0,0,0,0,0,0,
0,0,-46,2040,77,-9,-19,4,185,0,0,0,0,0,0,0,0,0,0,0,
0,0,-57,2036,74,-7,-19,5,170,0,0,0,0,0,0,0,0,0,0,0,
0,0,-50,2044,85,-10,-20,6,193,0,0,0,0,0,0,0,0,0,0,0,
0,0,-47,2041,76,-7,-16,7,192,0,0,0,0,0,0,0,0,0,0,0,
0,0,-47,2041,76,-6,-19,7,190,0,0,0,0,0,0,0,0,0,0,0,
0,0,-42,2041,77,-8,-16,5,195,0,0,0,0,0,0,0,0,0,0,0,
0,0,-50,2042,77,-7,-19,6,187,0,0,0,0,0,0,0,0,0,0,0,
0,0,-53,2049,78,-9,-20,5,189,0,0,0,0,0,0,0,0,0,0,0,
0,0,-53,2049,78,-10,-20,4,187,0,0,0,0,0,0,0,0,0,0,0,
0,0,-56,2039,75,-8,-18,6,176,0,0,0,0,0,0,0,0,0,0,0,
0,0,-54,2041,84,-12,-17,7,187,0,0,0,0,0,0,0,0,0,0,0,
0,0,-51,2039,76,-8,-18,6,182,0,0,0,0,0,0,0,0,0,0,0,
0,0,-50,2041,83,-10,-18,8,192,0,0,0,0,0,0,0,0,0,0,0,
0,0,-51,2045,82,-10,-22,5,187,0,0,0,0,0,0,0,0,0,0,0,
0,0,-57,2038,82,-6,-20,8,183,0,0,0,0,0,0,0,0,0,0,0,
0,0,-51,2039,78,-9,-18,5,182,0,0,0,0,0,0,0,0,0,0,0,
0,0,-53,2038,81,-10,-17,5,182,0,0,0,0,0,0,0,0,0,0,0,
0,0,-50,2045,75,-9,-21,6,184,0,0,0,0,0,0,0,0,0,0,0,
0,0,-56,2039,75,-9,-18,8,177,0,0,0,0,0,0,0,0,0,0,0,
0,0,-49,2049,83,-9,-18,7,202,0,0,0,0,0,0,0,0,0,0,0,
0,0,-52,2036,78,-7,-21,5,177,0,0,0,0,0,0,0,0,0,0,0,
0,0,-55,2045,73,-11,-17,3,176,0,0,0,0,0,0,0,0,0,0,0,
0,0,-48,2039,78,-6,-19,3,185,0,0,0,0,0,0,0,0,0,0,0,
0,0,-51,2043,72,-9,-19,4,178,0,0,0,0,0,0,0,0,0,0,0,
0,0,-48,2041,83,-5,-18,4,195,0,0,0,0,0,0,0,0,0,0,0,
0,0,-49,2039,79,-5,-18,5,189,0,0,0,0,0,0,0,0,0,0,0,
0,0,-45,2039,77,-10,-18,7,188,0,0,0,0,0,0,0,0,0,0,0,
0,0,-48,2044,81,-7,-20,5,193,0,0,0,0,0,0,0,0,0,0,0,
0,0,-53,2038,79,-11,-17,6,180,0,0,0,0,0,0,0,0,0,0,0,
0,0,-45,2041,83,-10,-20,8,195,0,0,0,0,0,0,0,0,0,0,0,
0,0,-50,2035,80,-7,-14,10,192,0,0,0,0,0,0,0,0,0,0,0,
0,0,-52,2042,79,-8,-21,10,188,0,0,0,0,0,0,0,0,0,0,0,
0,0,-53,2039,77,-7,-17,6,183,0,0,0,0,0,0,0,0,0,0,0,
0,0,-45,2042,81,-9,-17,5,195,0,0,0,0,0,0,0,0,0,0,0,
0,0,-54,2047,79,-9,-15,7,193,0,0,0,0,0,0,0,0,0,0,0,
0,0,-48,2035,79,-4,-18,9,191,0,0,0,0,0,0,0,0,0,0,0,
0,0,-47,2040,79,-7,-17,8,194,0,0,0,0,0,0,0,0,0,0,0,
0,0,-50,2040,85,-8,-18,9,196,0,0,0,0,0,0,0,0,0,0,0,
0,0,-48,2032,76,-8,-21,8,177,0,0,0,0,0,0,0,0,0,0,0,
0,0,-54,2044,78,-14,-19,6,179,0,0,0,0,0,0,0,0,0,0,0,
0,0,-51,2047,81,-10,-15,5,195,0,0,0,0,0,0,0,0,0,0,0,
0,0,-49,2039,74,-7,-20,5,180,0,0,0,0,0,0,0,0,0,0,0,
0,0,-50,2039,82,-9,-17,5,188,0,0,0,0,0,0,0,0,0,0,0,
0,0,-44,2042,75,-9,-19,8,191,0,0,0,0,0,0,0,0,0,0,0,
0,0,-50,2045,81,-10,-19,4,189,0,0,0,0,0,0,0,0,0,0,0,
0,0,-52,2036,79,-10,-16,7,182,0,0,0,0,0,0,0,0,0,0,0,
0,0,-44,2037,81,-8,-20,4,188,0,0,0,0,0,0,0,0,0,0,0,
0,0,-42,2041,81,-9,-19,5,195,0,0,0,0,0,0,0,0,0,0,0,
0,0,-51,2041,78,-10,-15,4,185,0,0,0,0,0,0,0,0,0,0,0,
0,0,-47,2035,83,-7,-16,6,192,0,0,0,0,0,0,0,0,0,0,0,
0,0,-53,2037,81,-9,-16,6,184,0,0,0,0,0,0,0,0,0,0,0,
0,0,-54,2043,79,-6,-18,7,189,0,0,0,0,0,0,0,0,0,0,0,
0,0,-50,2040,89,-7,-20,4,194,0,0,0,0,0,0,0,0,0,0,0,
0,0,-47,2044,82,-6,-19,7,199,0,0,0,0,0,0,0,0,0,0,0,
0,0,-46,2042,75,-7,-19,6,189,0,0,0,0,0,0,0,0,0,0,0,
0,0,-55,2039,75,-9,-18,4,174,0,0,0,0,0,0,0,0,0,0,0,
0,0,-50,2040,85,-13,-18,5,187,0,0,0,0,0,0,0,0,0,0,0,
0,0,-45,2043,74,-8,-16,6,192,0,0,0,0,0,0,0,0,0,0,0,
0,0,-47,2044,81,-8,-16,5,197,0,0,0,0,0,0,0,0,0,0,0,
0,0,-50,2040,78,-10,-18,7,185,0,0,0,0,0,0,0,0,0,0,0,
0,0,-48,2039,76,-9,-21,3,178,0,0,0,0,0,0,0,0,0,0,0,
0,0,-49,2036,90,-6,-16,8,201,0,0,0,0,0,0,0,0,0,0,0,
0,0,-50,2041,83,-9,-17,3,189,0,0,0,0,0,0,0,0,0,0,0,
0,0,-56,2035,73,-9,-19,6,168,0,0,0,0,0,0,0,0,0,0,0,
0,0,-44,2041,78,-8,-20,5,190,0,0,0,0,0,0,0,0,0,0,0,
0,0,-50,2043,81,-6,-18,11,199,0,0,0,0,0,0,0,0,0,0,0,
0,0,-54,2039,90,-5,-15,7,200,0,0,0,0,0,0,0,0,0,0,0,
0,0,-51,2044,81,-10,-21,10,191,0,0,0,0,0,0,0,0,0,0,0,
0,0,-53,2044,80,-9,-19,7,188,0,0,0,0,0,0,0,0,0,0,0,
0,0,-51,2046,79,-10,-16,8,194,0,0,0,0,0,0,0,0,0,0,0,
0,0,-53,2042,84,-8,-18,2,187,0,0,0,0,0,0,0,0,0,0,0,
0,0,-53,2039,88,-8,-19,5,190,0,0,0,0,0,0,0,0,0,0,0,
0,0,-46,2040,76,-8,-18,4,186,0,0,0,0,0,0,0,0,0,0,0,
0,0,-49,2042,75,-10,-17,4,183,0,0,0,0,0,0,0,0,0,0,0,
0,0,-40,2038,73,-8,-17,7,191,0,0,0,0,0,0,0,0,0,0,0,
0,0,-52,2041,82,-10,-17,4,186,0,0,0,0,0,0,0,0,0,0,0,
0,0,-50,2041,76,-12,-18,6,181,0,0,0,0,0,0,0,0,0,0,0,
0,0,-51,2040,74,-8,-15,5,183,0,0,0,0,0,0,0,0,0,0,0,
0,0,-52,2039,77,-7,-20,3,178,0,0,0,0,0,0,0,0,0,0,0,
0,0,-56,2042,88,-7,-18,9,196,0,0,0,0,0,0,0,0,0,0,0,
0,0,-51,2033,79,-13,-16,3,173,0,0,0,0,0,0,0,0,0,0,0,
0,0,-55,2039,83,-10,-15,7,187,0,0,0,0,0,0,0,0,0,0,0,
0,0,-53,2041,80,-8,-17,7,188,0,0,0,0,0,0,0,0,0,0,0,
0,0,-51,2041,72,-6,-15,8,187,0,0,0,0,0,0,0,0,0,0,0,
0,0,-56,2041,79,-7,-21,7,181,0,0,0,0,0,0,0,0,0,0,0,
0,0,-51,2041,85,-6,-16,1,192,0,0,0,0,0,0,0,0,0,0,0,
0,0,-55,2044,79,-9,-17,2,182,0,0,0,0,0,0,0,0,0,0,0,
0,0,-54,2047,83,-9,-19,6,192,0,0,0,0,0,0,0,0,0,0,0,
0,0,-52,2041,77,-8,-17,7,186,0,0,0,0,0,0,0,0,0,0,0,
0,0,-49,2043,83,-8,-17,8,198,0,0,0,0,0,0,0,0,0,0,0,
0,0,-53,2039,79,-7,-20,6,182,0,0,0,0,0,0,0,0,0,0,0,
0,0,-48,2045,78,-8,-17,9,197,0,0,0,0,0,0,0,0,0,0,0,
0,0,-50,2037,82,-8,-18,7,188,0,0,0,0,0,0,0,0,0,0,0,
0,0,-55,2037,81,-9,-18,6,180,0,0,0,0,0,0,0,0,0,0,0,
0,0,-46,2042,81,-10,-18,5,192,0,0,0,0,0,0,0,0,0,0,0,
0,0,-48,2041,79,-7,-16,2,189,0,0,0,0,0,0,0,0,0,0,0,
0,0,-47,2040,81,-6,-20,8,194,0,0,0,0,0,0,0,0,0,0,0,
0,0,-45,2036,82,-4,-15,7,199,0,0,0,0,0,0,0,0,0,0,0,
0,0,-50,2041,69,-7,-17,8,182,0,0,0,0,0,0,0,0,0,0,0,
0,0,-50,2041,74,-7,-18,6,184,0,0,0,0,0,0,0,0,0,0,0,
0,0,-57,2044,76,-8,-18,8,183,0,0,0,0,0,0,0,0,0,0,0,
0,0,-50,2034,80,-9,-15,1,179,0,0,0,0,0,0,0,0,0,0,0,
0,0,-48,2032,81,-8,-21,5,179,0,0,0,0,0,0,0,0,0,0,0,
0,0,-46,2039,79,-9,-19,5,187,0,0,0,0,0,0,0,0,0,0,0,
0,0,-48,2045,79,-7,-14,7,200,0,0,0,0,0,0,0,0,0,0,0,
0,0,-50,2043,77,-9,-15,4,188,0,0,0,0,0,0,0,0,0,0,0,
0,0,-50,2043,84,-6,-20,4,193,0,0,0,0,0,0,0,0,0,0,0,
0,0,-46,2041,85,-9,-19,4,194,0,0,0,0,0,0,0,0,0,0,0,
0,0,-50,2038,80,-6,-18,3,185,0,0,0,0,0,0,0,0,0,0,0,
0,0,-50,2038,80,-6,-18,3,185,0,0,0,0,0,0,0,0,0,0,0,
0,0,-54,2039,83,-9,-17,4,184,0,0,0,0,0,0,0,0,0,0,0,
0,0,-54,2037,80,-8,-21,8,180,0,0,0,0,0,0,0,0,0,0,0,
0,0,-51,2033,84,-6,-20,5,183,0,0,0,0,0,0,0,0,0,0,0,
0,0,-51,2033,84,-11,-19,3,177,0,0,0,0,0,0,0,0,0,0,0,
0,0,-46,2041,83,-7,-18,6,197,0,0,0,0,0,0,0,0,0,0,0,
0,0,-48,2044,82,-9,-18,8,197,0,0,0,0,0,0,0,0,0,0,0,
0,0,-48,2041,76,-8,-18,6,187,0,0,0,0,0,0,0,0,0,0,0,
0,0,-48,2041,76,-8,-19,4,184,0,0,0,0,0,0,0,0,0,0,0,
0,0,-50,2044,79,-11,-18,10,192,0,0,0,0,0,0,0,0,0,0,0,
0,0,-51,2043,82,-9,-19,4,188,0,0,0,0,0,0,0,0,0,0,0,
0,0,-46,2041,79,-10,-16,5,191,0,0,0,0,0,0,0,0,0,0,0,
0,0,-54,2035,82,-10,-19,6,178,0,0,0,0,0,0,0,0,0,0,0,
0,0,-44,2045,82,-8,-16,8,205,0,0,0,0,0,0,0,0,0,0,0,
0,0,-46,2042,74,-5,-20,8,191,0,0,0,0,0,0,0,0,0,0,0,
0,0,-49,2040,77,-10,-18,2,180,0,0,0,0,0,0,0,0,0,0,0,
0,0,-47,2041,81,-7,-21,5,190,0,0,0,0,0,0,0,0,0,0,0,
0,0,-52,2034,81,-4,-18,8,187,0,0,0,0,0,0,0,0,0,0,0,
0,0,-51,2042,71,-6,-20,6,180,0,0,0,0,0,0,0,0,0,0,0,
0,0,-51,2045,79,-7,-17,7,194,0,0,0,0,0,0,0,0,0,0,0,
0,0,-48,2034,81,-9,-19,4,181,0,0,0,0,0,0,0,0,0,0,0,
0,0,-54,2037,81,-10,-16,6,182,0,0,0,0,0,0,0,0,0,0,0,
0,0,-50,2041,76,-8,-19,4,182,0,0,0,0,0,0,0,0,0,0,0,
0,0,-50,2040,76,-10,-16,6,184,0,0,0,0,0,0,0,0,0,0,0,
0,0,-47,2038,87,-6,-20,7,197,0,0,0,0,0,0,0,0,0,0,0,
0,0,-49,2044,81,-9,-14,11,202,0,0,0,0,0,0,0,0,0,0,0,
0,0,-49,2037,81,-7,-18,6,188,0,0,0,0,0,0,0,0,0,0,0,
0,0,-43,2041,83,-5,-16,4,202,0,0,0,0,0,0,0,0,0,0,0,
0,0,-44,2040,75,-6,-17,6,192,0,0,0,0,0,0,0,0,0,0,0,
0,0,-53,2038,73,-8,-21,9,176,0,0,0,0,0,0,0,0,0,0,0,
0,0,-45,2040,82,-9,-19,8,195,0,0,0,0,0,0,0,0,0,0,0,
0,0,-47,2037,80,-7,-20,7,188,0,0,0,0,0,0,0,0,0,0,0,
0,0,-46,2041,82,-9,-20,4,190,0,0,0,0,0,0,0,0,0,0,0,
0,0,-56,2040,76,-9,-16,5,178,0,0,0,0,0,0,0,0,0,0,0,
0,0,-50,2043,80,-9,-18,5,189,0,0,0,0,0,0,0,0,0,0,0,
0,0,-57,2054,85,-7,-19,7,202,0,0,0,0,0,0,0,0,0,0,0,
0,0,-52,2037,77,-9,-18,8,181,0,0,0,0,0,0,0,0,0,0,0,
0,0,-58,2040,77,-11,-17,4,173,0,0,0,0,0,0,0,0,0,0,0,
0,0,-57,2040,77,-9,-17,4,176,0,0,0,0,0,0,0,0,0,0,0,
0,0,-53,2046,81,-8,-16,6,194,0,0,0,0,0,0,0,0,0,0,0,
0,0,-53,2040,78,-8,-18,4,181,0,0,0,0,0,0,0,0,0,0,0,
0,0,-54,2038,75,-9,-19,8,177,0,0,0,0,0,0,0,0,0,0,0,
0,0,-53,2042,71,-7,-20,6,177,0,0,0,0,0,0,0,0,0,0,0,
0,0,-55,2039,79,-9,-17,3,178,0,0,0,0,0,0,0,0,0,0,0,
0,0,-51,2043,86,-7,-17,6,198,0,0,0,0,0,0,0,0,0,0,0,
0,0,-55,2035,72,-8,-16,6,172,0,0,0,0,0,0,0,0,0,0,0,
0,0,-48,2045,78,-8,-20,5,190,0,0,0,0,0,0,0,0,0,0,0,
0,0,-55,2033,81,-8,-16,1,174,0,0,0,0,0,0,0,0,0,0,0,
0,0,-49,2042,81,-9,-21,5,187,0,0,0,0,0,0,0,0,0,0,0,
0,0,-53,2046,79,-8,-17,8,193,0,0,0,0,0,0,0,0,0,0,0,
0,0,-47,2038,80,-9,-20,6,186,0,0,0,0,0,0,0,0,0,0,0,
0,0,-50,2038,79,-9,-18,4,182,0,0,0,0,0,0,0,0,0,0,0,
0,0,-54,2047,72,-9,-21,6,179,0,0,0,0,0,0,0,0,0,0,0,
0,0,-52,2033,82,-7,-19,4,179,0,0,0,0,0,0,0,0,0,0,0,
0,0,-54,2042,83,-7,-17,2,187,0,0,0,0,0,0,0,0,0,0,0,
0,0,-48,2034,74,-7,-19,6,178,0,0,0,0,0,0,0,0,0,0,0,
0,0,-52,2037,82,-9,-20,5,181,0,0,0,0,0,0,0,0,0,0,0,
0,0,-55,2042,75,-9,-20,11,182,0,0,0,0,0,0,0,0,0,0,0,
0,0,-50,2041,79,-9,-17,4,186,0,0,0,0,0,0,0,0,0,0,0,
0,0,-51,2035,74,-9,-22,8,173,0,0,0,0,0,0,0,0,0,0,0,
0,0,-54,2042,86,-10,-18,2,186,0,0,0,0,0,0,0,0,0,0,0,
0,0,-50,2052,81,-8,-18,7,203,0,0,0,0,0,0,0,0,0,0,0,
0,0,-57,2049,74,-10,-18,1,178,0,0,0,0,0,0,0,0,0,0,0,
0,0,-56,2043,79,-6,-18,8,188,0,0,0,0,0,0,0,0,0,0,0,
0,0,-53,2040,77,-6,-20,6,182,0,0,0,0,0,0,0,0,0,0,0,
0,0,-46,2040,75,-6,-18,3,186,0,0,0,0,0,0,0,0,0,0,0,
0,0,-54,2042,78,-9,-19,6,182,0,0,0,0,0,0,0,0,0,0,0,
0,0,-49,2043,82,-9,-18,4,191,0,0,0,0,0,0,0,0,0,0,0,
0,0,-47,2035,74,-10,-17,6,179,0,0,0,0,0,0,0,0,0,0,0,
0,0,-50,2039,78,-7,-21,7,184,0,0,0,0,0,0,0,0,0,0,0,
0,0,-59,2047,71,-8,-17,6,178,0,0,0,0,0,0,0,0,0,0,0,
0,0,-58,2046,77,-8,-15,4,184,0,0,0,0,0,0,0,0,0,0,0,
0,0,-49,2036,78,-11,-18,5,179,0,0,0,0,0,0,0,0,0,0,0,
0,0,-45,2041,76,-8,-18,5,189,0,0,0,0,0,0,0,0,0,0,0,
0,0,-47,2039,85,-10,-17,4,192,0,0,0,0,0,0,0,0,0,0,0,
0,0,-54,2045,73,-11,-18,7,180,0,0,0,0,0,0,0,0,0,0,0,
0,0,-51,2037,72,-10,-18,5,173,0,0,0,0,0,0,0,0,0,0,0,
0,0,-50,2035,76,-8,-15,6,182,0,0,0,0,0,0,0,0,0,0,0,
0,0,-61,2038,81,-9,-18,3,172,0,0,0,0,0,0,0,0,0,0,0,
0,0,-53,2043,72,-10,-19,5,176,0,0,0,0,0,0,0,0,0,0,0,
0,0,-53,2039,83,-12,-17,7,185,0,0,0,0,0,0,0,0,0,0,0,
0,0,-50,2035,86,-5,-20,7,191,0,0,0,0,0,0,0,0,0,0,0,
0,0,-48,2045,82,-6,-17,7,201,0,0,0,0,0,0,0,0,0,0,0,
0,0,-50,2044,78,-10,-18,5,187,0,0,0,0,0,0,0,0,0,0,0,
0,0,-49,2038,85,-11,-17,6,190,0,0,0,0,0,0,0,0,0,0,0,
0,0,-53,2037,83,-9,-17,8,187,0,0,0,0,0,0,0,0,0,0,0,
0,0,-50,2041,82,-9,-18,7,191,0,0,0,0,0,0,0,0,0,0,0,
0,0,-49,2039,84,-6,-16,6,196,0,0,0,0,0,0,0,0,0,0,0,
0,0,-38,2040,72,-9,-19,6,190,0,0,0,0,0,0,0,0,0,0,0,
0,0,-52,2035,86,-7,-18,9,191,0,0,0,0,0,0,0,0,0,0,0,
0,0,-48,2044,82,-9,-18,4,193,0,0,0,0,0,0,0,0,0,0,0,
0,0,-51,2036,81,-7,-17,6,186,0,0,0,0,0,0,0,0,0,0,0,
0,0,-47,2038,83,-7,-17,8,196,0,0,0,0,0,0,0,0,0,0,0,
0,0,-53,2040,78,-8,-19,5,181,0,0,0,0,0,0,0,0,0,0,0,
0,0,-52,2040,77,-10,-19,4,178,0,0,0,0,0,0,0,0,0,0,0,
0,0,-45,2045,79,-6,-18,5,198,0,0,0,0,0,0,0,0,0,0,0,
0,0,-47,2042,80,-7,-18,4,192,0,0,0,0,0,0,0,0,0,0,0,
0,0,-45,2041,73,-9,-18,6,186,0,0,0,0,0,0,0,0,0,0,0,
0,0,-51,2043,78,-7,-21,8,188,0,0,0,0,0,0,0,0,0,0,0,
0,0,-50,2043,83,-11,-17,4,190,0,0,0,0,0,0,0,0,0,0,0,
0,0,-48,2040,81,-7,-20,3,187,0,0,0,0,0,0,0,0,0,0,0,
0,0,-49,2033,78,-8,-19,7,180,0,0,0,0,0,0,0,0,0,0,0,
0,0,-49,2039,85,-8,-21,7,191,0,0,0,0,0,0,0,0,0,0,0,
0,0,-52,2042,77,-10,-20,3,178,0,0,0,0,0,0,0,0,0,0,0,
0,0,-58,2042,75,-4,-20,7,180,0,0,0,0,0,0,0,0,0,0,0,
0,0,-50,2038,85,-6,-18,4,191,0,0,0,0,0,0,0,0,0,0,0,
0,0,-44,2045,72,-10,-18,6,189,0,0,0,0,0,0,0,0,0,0,0,
0,0,-44,2045,72,-10,-18,6,189,0,0,0,0,0,0,0,0,0,0,0,
0,0,-48,2038,78,-8,-17,8,189,0,0,0,0,0,0,0,0,0,0,0,
0,0,-50,2036,80,-10,-18,4,180,0,0,0,0,0,0,0,0,0,0,0,
0,0,-51,2040,79,-10,-17,2,181,0,0,0,0,0,0,0,0,0,0,0,
0,0,-53,2042,83,-8,-18,3,187,0,0,0,0,0,0,0,0,0,0,0,
0,0,-49,2033,77,-8,-16,5,180,0,0,0,0,0,0,0,0,0,0,0,
0,0,-49,2033,77,-7,-17,4,179,0,0,0,0,0,0,0,0,0,0,0,
0,0,-49,2041,77,-11,-17,2,181,0,0,0,0,0,0,0,0,0,0,0,
0,0,-53,2035,86,-4,-21,6,187,0,0,0,0,0,0,0,0,0,0,0,
0,0,-52,2042,73,-10,-19,6,178,0,0,0,0,0,0,0,0,0,0,0,
0,0,-52,2042,73,-7,-18,5,181,0,0,0,0,0,0,0,0,0,0,0,
0,0,-51,2042,75,-10,-18,3,179,0,0,0,0,0,0,0,0,0,0,0,
0,0,-46,2038,81,-6,-16,7,196,0,0,0,0,0,0,0,0,0,0,0,
0,0,-46,2030,76,-9,-17,5,177,0,0,0,0,0,0,0,0,0,0,0,
0,0,-49,2039,75,-8,-19,1,177,0,0,0,0,0,0,0,0,0,0,0,
0,0,-54,2038,82,-9,-19,3,179,0,0,0,0,0,0,0,0,0,0,0,
0,0,-54,2039,80,-7,-18,8,186,0,0,0,0,0,0,0,0,0,0,0,
0,0,-47,2041,80,-10,-16,6,192,0,0,0,0,0,0,0,0,0,0,0,
0,0,-49,2037,79,-8,-16,3,184,0,0,0,0,0,0,0,0,0,0,0,
0,0,-56,2044,77,-10,-18,4,179,0,0,0,0,0,0,0,0,0,0,0,
0,0,-47,2038,75,-11,-18,7,182,0,0,0,0,0,0,0,0,0,0,0,
0,0,-48,2038,72,-9,-17,3,177,0,0,0,0,0,0,0,0,0,0,0,
0,0,-46,2036,81,-4,-16,5,194,0,0,0,0,0,0,0,0,0,0,0,
0,0,-56,2041,80,-5,-18,6,186,0,0,0,0,0,0,0,0,0,0,0,
0,0,-52,2043,79,-6,-19,6,189,0,0,0,0,0,0,0,0,0,0,0,
0,0,-52,2036,76,-6,-19,6,179,0,0,0,0,0,0,0,0,0,0,0,
0,0,-52,2037,84,-10,-20,5,182,0,0,0,0,0,0,0,0,0,0,0,
0,0,-49,2042,83,-7,-18,7,196,0,0,0,0,0,0,0,0,0,0,0,
0,0,-50,2033,81,-6,-18,12,190,0,0,0,0,0,0,0,0,0,0,0,
0,0,-51,2042,82,-8,-18,2,187,0,0,0,0,0,0,0,0,0,0,0,
0,0,-50,2042,81,-11,-19,8,189,0,0,0,0,0,0,0,0,0,0,0,
0,0,-51,2037,84,-4,-22,8,190,0,0,0,0,0,0,0,0,0,0,0,
0,0,-49,2039,78,-11,-20,8,183,0,0,0,0,0,0,0,0,0,0,0,
0,0,-59,2045,81,-10,-16,4,183,0,0,0,0,0,0,0,0,0,0,0,
0,0,-52,2038,72,-6,-17,6,179,0,0,0,0,0,0,0,0,0,0,0,
0,0,-54,2041,81,-9,-16,10,191,0,0,0,0,0,0,0,0,0,0,0,
0,0,-55,2041,77,-6,-18,4,181,0,0,0,0,0,0,0,0,0,0,0,
0,0,-48,2044,74,-7,-19,7,189,0,0,0,0,0,0,0,0,0,0,0,
0,0,-45,2034,76,-7,-19,5,182,0,0,0,0,0,0,0,0,0,0,0,
0,0,-51,2040,76,-9,-17,3,180,0,0,0,0,0,0,0,0,0,0,0,
0,0,-52,2044,85,-7,-19,3,192,0,0,0,0,0,0,0,0,0,0,0,
0,0,-50,2050,80,-8,-20,8,199,0,0,0,0,0,0,0,0,0,0,0,
0,0,-53,2034,82,-9,-17,4,179,0,0,0,0,0,0,0,0,0,0,0,
0,0,-47,2035,74,-9,-20,9,180,0,0,0,0,0,0,0,0,0,0,0,
0,0,-51,2047,76,-9,-15,10,196,0,0,0,0,0,0,0,0,0,0,0,
0,0,-49,2039,84,-11,-21,5,185,0,0,0,0,0,0,0,0,0,0,0,
0,0,-48,2040,76,-7,-16,6,189,0,0,0,0,0,0,0,0,0,0,0,
0,0,-44,2038,84,-8,-17,6,197,0,0,0,0,0,0,0,0,0,0,0,
0,0,-54,2038,81,-10,-17,5,181,0,0,0,0,0,0,0,0,0,0,0,
0,0,-50,2046,81,-10,-16,4,193,0,0,0,0,0,0,0,0,0,0,0,
0,0,-48,2037,74,-7,-18,7,183,0,0,0,0,0,0,0,0,0,0,0,
0,0,-51,2041,83,-8,-18,12,197,0,0,0,0,0,0,0,0,0,0,0,
0,0,-48,2041,75,-8,-21,9,186,0,0,0,0,0,0,0,0,0,0,0,
0,0,-50,2038,76,-5,-17,6,186,0,0,0,0,0,0,0,0,0,0,0,
0,0,-51,2033,82,-7,-17,9,187,0,0,0,0,0,0,0,0,0,0,0,
0,0,-50,2037,78,-8,-22,8,181,0,0,0,0,0,0,0,0,0,0,0,
0,0,-52,2040,80,-6,-20,6,186,0,0,0,0,0,0,0,0,0,0,0,
0,0,-55,2040,73,-11,-19,7,173,0,0,0,0,0,0,0,0,0,0,0,
0,0,-53,2044,75,-9,-18,5,182,0,0,0,0,0,0,0,0,0,0,0,
0,0,-53,2038,78,-8,-19,5,179,0,0,0,0,0,0,0,0,0,0,0,
0,0,-49,2042,76,-9,-21,6,183,0,0,0,0,0,0,0,0,0,0,0,
0,0,-48,2045,73,-7,-17,4,188,0,0,0,0,0,0,0,0,0,0,0,
0,0,-51,2042,79,-7,-19,4,186,0,0,0,0,0,0,0,0,0,0,0,
0,0,-48,2029,76,-8,-17,7,177,0,0,0,0,0,0,0,0,0,0,0,
0,0,-58,2043,85,-7,-20,4,185,0,0,0,0,0,0,0,0,0,0,0,
0,0,-51,2042,77,-7,-18,5,186,0,0,0,0,0,0,0,0,0,0,0,
0,0,-47,2035,80,-8,-17,6,187,0,0,0,0,0,0,0,0,0,0,0,
0,0,-55,2045,78,-10,-16,4,184,0,0,0,0,0,0,0,0,0,0,0,
0,0,-48,2037,73,-10,-20,3,173,0,0,0,0,0,0,0,0,0,0,0,
0,0,-54,2043,74,-8,-18,3,178,0,0,0,0,0,0,0,0,0,0,0,
0,0,-47,2041,77,-10,-20,8,187,0,0,0,0,0,0,0,0,0,0,0,
0,0,-50,2032,81,-9,-20,6,178,0,0,0,0,0,0,0,0,0,0,0,
0,0,-52,2044,75,-7,-19,4,183,0,0,0,0,0,0,0,0,0,0,0,
0,0,-58,2050,77,-9,-17,7,189,0,0,0,0,0,0,0,0,0,0,0,
0,0,-56,2041,78,-10,-18,5,178,0,0,0,0,0,0,0,0,0,0,0,
0,0,-48,2033,76,-8,-19,7,179,0,0,0,0,0,0,0,0,0,0,0,
0,0,-46,2039,73,-5,-16,6,189,0,0,0,0,0,0,0,0,0,0,0,
0,0,-56,2045,76,-7,-17,3,182,0,0,0,0,0,0,0,0,0,0,0,
0,0,-56,2038,84,-8,-16,10,190,0,0,0,0,0,0,0,0,0,0,0,
0,0,-55,2031,73,-7,-19,3,164,0,0,0,0,0,0,0,0,0,0,0,
0,0,-49,2041,77,-4,-18,6,191,0,0,0,0,0,0,0,0,0,0,0,
0,0,-53,2040,83,-10,-18,5,185,0,0,0,0,0,0,0,0,0,0,0,
0,0,-50,2039,83,-5,-20,7,192,0,0,0,0,0,0,0,0,0,0,0,
0,0,-53,2040,84,-9,-21,6,185,0,0,0,0,0,0,0,0,0,0,0,
0,0,-52,2037,80,-8,-21,2,176,0,0,0,0,0,0,0,0,0,0,0,
0,0,-47,2041,83,-9,-19,3,190,0,0,0,0,0,0,0,0,0,0,0,
0,0,-50,2042,78,-9,-22,6,183,0,0,0,0,0,0,0,0,0,0,0,
0,0,-52,2043,80,-14,-18,4,181,0,0,0,0,0,0,0,0,0,0,0,
0,0,-52,2040,84,-11,-20,6,185,0,0,0,0,0,0,0,0,0,0,0,
0,0,-49,2041,81,-7,-19,5,190,0,0,0,0,0,0,0,0,0,0,0,
0,0,-49,2042,81,-9,-16,6,193,0,0,0,0,0,0,0,0,0,0,0,
0,0,-56,2043,78,-8,-19,6,182,0,0,0,0,0,0,0,0,0,0,0,
0,0,-50,2038,82,-12,-18,6,184,0,0,0,0,0,0,0,0,0,0,0,
0,0,-55,2036,81,-7,-20,7,180,0,0,0,0,0,0,0,0,0,0,0,
0,0,-55,2035,78,-10,-19,7,174,0,0,0,0,0,0,0,0,0,0,0,
0,0,-52,2042,75,-7,-19,10,187,0,0,0,0,0,0,0,0,0,0,0,
0,0,-55,2039,83,-8,-18,6,185,0,0,0,0,0,0,0,0,0,0,0,
0,0,-46,2035,71,-8,-20,4,174,0,0,0,0,0,0,0,0,0,0,0,
0,0,-49,2041,73,-4,-20,5,184,0,0,0,0,0,0,0,0,0,0,0,
0,0,-43,2038,78,-6,-17,7,195,0,0,0,0,0,0,0,0,0,0,0,
0,0,-55,2035,71,-3,-15,5,176,0,0,0,0,0,0,0,0,0,0,0,
0,0,-53,2043,78,-7,-16,6,189,0,0,0,0,0,0,0,0,0,0,0,
0,0,-54,2035,81,-9,-17,6,180,0,0,0,0,0,0,0,0,0,0,0,
0,0,-47,2040,76,-10,-15,4,186,0,0,0,0,0,0,0,0,0,0,0,
0,0,-53,2038,78,-10,-19,3,175,0,0,0,0,0,0,0,0,0,0,0,
0,0,-46,2036,82,-8,-18,5,189,0,0,0,0,0,0,0,0,0,0,0,
0,0,-53,2041,73,-10,-17,4,176,0,0,0,0,0,0,0,0,0,0,0,
0,0,-52,2047,84,-6,-19,7,199,0,0,0,0,0,0,0,0,0,0,0,
0,0,-54,2041,77,-8,-20,4,178,0,0,0,0,0,0,0,0,0,0,0,
0,0,-54,2041,77,-8,-20,4,178,0,0,0,0,0,0,0,0,0,0,0,
0,0,-49,2039,83,-10,-21,6,186,0,0,0,0,0,0,0,0,0,0,0,
0,0,-53,2041,72,-7,-18,6,179,0,0,0,0,0,0,0,0,0,0,0,
0,0,-51,2041,75,-8,-19,6,182,0,0,0,0,0,0,0,0,0,0,0,
0,0,-51,2045,78,-4,-20,8,194,0,0,0,0,0,0,0,0,0,0,0,
0,0,-46,2038,73,-8,-17,10,188,0,0,0,0,0,0,0,0,0,0,0,
0,0,-46,2038,73,-6,-17,5,185,0,0,0,0,0,0,0,0,0,0,0,
0,0,-47,2042,74,-7,-13,1,188,0,0,0,0,0,0,0,0,0,0,0,
0,0,-52,2039,83,-9,-17,4,186,0,0,0,0,0,0,0,0,0,0,0,
0,0,-52,2046,78,-6,-18,8,194,0,0,0,0,0,0,0,0,0,0,0,
0,0,-52,2046,78,-10,-16,6,190,0,0,0,0,0,0,0,0,0,0,0,
0,0,-46,2037,75,-11,-19,4,178,0,0,0,0,0,0,0,0,0,0,0,
0,0,-56,2044,78,-9,-17,5,183,0,0,0,0,0,0,0,0,0,0,0,
0,0,-53,2038,82,-4,-19,4,186,0,0,0,0,0,0,0,0,0,0,0,
0,0,-52,2038,73,-10,-19,6,174,0,0,0,0,0,0,0,0,0,0,0,
0,0,-47,2042,82,-7,-18,5,195,0,0,0,0,0,0,0,0,0,0,0,
0,0,-53,2039,82,-8,-18,7,187,0,0,0,0,0,0,0,0,0,0,0,
0,0,-53,2040,82,-6,-19,7,189,0,0,0,0,0,0,0,0,0,0,0,
0,0,-53,2040,78,-6,-19,4,182,0,0,0,0,0,0,0,0,0,0,0,
0,0,-50,2037,83,-7,-20,6,187,0,0,0,0,0,0,0,0,0,0,0,
0,0,-55,2039,77,-10,-17,5,177,0,0,0,0,0,0,0,0,0,0,0,
0,0,-48,2042,77,-11,-20,6,184,0,0,0,0,0,0,0,0,0,0,0,
0,0,-53,2042,76,-8,-15,4,184,0,0,0,0,0,0,0,0,0,0,0,
0,0,-44,2038,76,-8,-21,5,184,0,0,0,0,0,0,0,0,0,0,0,
0,0,-50,2036,79,-5,-17,7,188,0,0,0,0,0,0,0,0,0,0,0,
0,0,-47,2041,80,-7,-16,4,193,0,0,0,0,0,0,0,0,0,0,0,
0,0,-45,2042,74,-7,-15,4,191,0,0,0,0,0,0,0,0,0,0,0,
0,0,-53,2044,76,-5,-18,6,188,0,0,0,0,0,0,0,0,0,0,0,
0,0,-46,2043,83,-8,-18,7,199,0,0,0,0,0,0,0,0,0,0,0,
0,0,-56,2033,78,-11,-20,5,167,0,0,0,0,0,0,0,0,0,0,0,
0,0,-53,2036,86,-8,-17,7,189,0,0,0,0,0,0,0,0,0,0,0,
0,0,-54,2040,83,-8,-18,6,187,0,0,0,0,0,0,0,0,0,0,0,
0,0,-52,2052,79,-8,-15,7,202,0,0,0,0,0,0,0,0,0,0,0,
0,0,-50,2033,87,-9,-19,1,181,0,0,0,0,0,0,0,0,0,0,0,
0,0,-54,2042,82,-10,-20,2,180,0,0,0,0,0,0,0,0,0,0,0,
0,0,-50,2038,76,-9,-19,6,180,0,0,0,0,0,0,0,0,0,0,0,
0,0,-55,2035,79,-8,-15,7,181,0,0,0,0,0,0,0,0,0,0,0,
0,0,-53,2040,78,-8,-18,5,182,0,0,0,0,0,0,0,0,0,0,0,
0,0,-47,2035,75,-9,-16,3,179,0,0,0,0,0,0,0,0,0,0,0,
0,0,-52,2040,83,-12,-18,6,185,0,0,0,0,0,0,0,0,0,0,0,
0,0,-49,2043,79,-9,-18,8,192,0,0,0,0,0,0,0,0,0,0,0,
0,0,-48,2042,78,-8,-17,8,193,0,0,0,0,0,0,0,0,0,0,0,
0,0,-48,2041,80,-9,-22,5,185,0,0,0,0,0,0,0,0,0,0,0,
0,0,-50,2039,77,-10,-19,7,182,0,0,0,0,0,0,0,0,0,0,0,
0,0,-47,2036,80,-7,-17,8,191,0,0,0,0,0,0,0,0,0,0,0,
0,0,-57,2031,77,-13,-20,5,161,0,0,0,0,0,0,0,0,0,0,0,
0,0,-57,2049,82,-8,-20,8,193,0,0,0,0,0,0,0,0,0,0,0,
0,0,-43,2042,76,-8,-18,4,191,0,0,0,0,0,0,0,0,0,0,0,
0,0,-51,2048,74,-10,-21,3,182,0,0,0,0,0,0,0,0,0,0,0,
0,0,-48,2043,80,-9,-16,6,194,0,0,0,0,0,0,0,0,0,0,0,
0,0,-50,2037,75,-9,-18,4,177,0,0,0,0,0,0,0,0,0,0,0,
0,0,-51,2046,77,-10,-16,7,191,0,0,0,0,0,0,0,0,0,0,0,
0,0,-50,2045,85,-8,-16,6,200,0,0,0,0,0,0,0,0,0,0,0,
0,0,-56,2044,73,-8,-13,5,183,0,0,0,0,0,0,0,0,0,0,0,
0,0,-48,2044,81,-7,-17,6,197,0,0,0,0,0,0,0,0,0,0,0,
0,0,-49,2037,75,-10,-19,5,177,0,0,0,0,0,0,0,0,0,0,0,
0,0,-51,2044,83,-7,-20,4,191,0,0,0,0,0,0,0,0,0,0,0,
0,0,-49,2039,78,-6,-18,7,189,0,0,0,0,0,0,0,0,0,0,0,
0,0,-49,2041,76,-11,-17,5,183,0,0,0,0,0,0,0,0,0,0,0,
0,0,-50,2036,72,-9,-20,10,177,0,0,0,0,0,0,0,0,0,0,0,
0,0,-45,2037,78,-9,-20,6,185,0,0,0,0,0,0,0,0,0,0,0,
0,0,-47,2044,75,-6,-17,7,194,0,0,0,0,0,0,0,0,0,0,0,
0,0,-46,2042,82,-7,-18,8,199,0,0,0,0,0,0,0,0,0,0,0,
0,0,-49,2035,84,-9,-19,4,184,0,0,0,0,0,0,0,0,0,0,0,
0,0,-55,2037,77,-10,-17,5,175,0,0,0,0,0,0,0,0,0,0,0,
0,0,-50,2038,81,-7,-20,6,186,0,0,0,0,0,0,0,0,0,0,0,
0,0,-48,2043,74,-3,-17,5,192,0,0,0,0,0,0,0,0,0,0,0,
0,0,-51,2037,78,-9,-19,3,177,0,0,0,0,0,0,0,0,0,0,0,
0,0,-53,2042,77,-8,-19,3,180,0,0,0,0,0,0,0,0,0,0,0,
0,0,-50,2044,71,-10,-17,1,177,0,0,0,0,0,0,0,0,0,0,0,
0,0,-51,2035,77,-8,-18,7,180,0,0,0,0,0,0,0,0,0,0,0,
0,0,-52,2038,73,-10,-16,5,176,0,0,0,0,0,0,0,0,0,0,0,
0,0,-51,2035,81,-8,-18,5,182,0,0,0,0,0,0,0,0,0,0,0,
0,0,-50,2040,80,-6,-19,4,187,0,0,0,0,0,0,0,0,0,0,0,
0,0,-50,2033,81,-10,-19,8,181,0,0,0,0,0,0,0,0,0,0,0,
0,0,-50,2037,77,-7,-23,6,178,0,0,0,0,0,0,0,0,0,0,0,
0,0,-55,2037,82,-9,-18,4,179,0,0,0,0,0,0,0,0,0,0,0,
0,0,-42,2041,74,-6,-15,5,195,0,0,0,0,0,0,0,0,0,0,0,
0,0,-50,2030,72,-11,-18,8,169,0,0,0,0,0,0,0,0,0,0,0,
0,0,-51,2042,78,-6,-18,7,190,0,0,0,0,0,0,0,0,0,0,0,
0,0,-50,2040,74,-7,-18,6,183,0,0,0,0,0,0,0,0,0,0,0,
0,0,-54,2043,75,-6,-19,2,179,0,0,0,0,0,0,0,0,0,0,0,
0,0,-52,2033,83,-7,-19,5,181,0,0,0,0,0,0,0,0,0,0,0,
0,0,-53,2040,84,-9,-16,4,188,0,0,0,0,0,0,0,0,0,0,0,
0,0,-55,2043,83,-11,-21,5,182,0,0,0,0,0,0,0,0,0,0,0,
0,0,-56,2042,77,-8,-18,6,181,0,0,0,0,0,0,0,0,0,0,0,
0,0,-55,2043,82,-8,-16,7,191,0,0,0,0,0,0,0,0,0,0,0,
0,0,-55,2042,84,-7,-16,7,193,0,0,0,0,0,0,0,0,0,0,0,
0,0,-48,2044,83,-7,-19,5,196,0,0,0,0,0,0,0,0,0,0,0,
0,0,-49,2042,85,-10,-18,3,191,0,0,0,0,0,0,0,0,0,0,0,
0,0,-48,2042,82,-7,-19,6,194,0,0,0,0,0,0,0,0,0,0,0,
0,0,-55,2041,83,-8,-15,7,191,0,0,0,0,0,0,0,0,0,0,0,
0,0,-54,2043,79,-9,-18,5,184,0,0,0,0,0,0,0,0,0,0,0,
0,0,-48,2036,77,-7,-20,7,183,0,0,0,0,0,0,0,0,0,0,0,
0,0,-51,2045,79,-5,-15,7,198,0,0,0,0,0,0,0,0,0,0,0,
0,0,-48,2049,74,-5,-17,8,200,0,0,0,0,0,0,0,0,0,0,0,
0,0,-48,2047,84,-8,-17,8,204,0,0,0,0,0,0,0,0,0,0,0,
0,0,-51,2034,76,-8,-18,7,178,0,0,0,0,0,0,0,0,0,0,0,
0,0,-48,2045,80,-9,-17,6,195,0,0,0,0,0,0,0,0,0,0,0,
0,0,-53,2038,77,-8,-19,5,178,0,0,0,0,0,0,0,0,0,0,0,
0,0,-57,2045,75,-6,-17,6,184,0,0,0,0,0,0,0,0,0,0,0,
0,0,-49,2041,85,-10,-19,8,194,0,0,0,0,0,0,0,0,0,0,0,
0,0,-48,2043,82,-9,-20,4,190,0,0,0,0,0,0,0,0,0,0,0,
0,0,-51,2041,77,-9,-20,5,181,0,0,0,0,0,0,0,0,0,0,0,
0,0,-46,2039,77,-8,-18,9,191,0,0,0,0,0,0,0,0,0,0,0,
0,0,-52,2046,79,-9,-20,7,189,0,0,0,0,0,0,0,0,0,0,0,
0,0,-48,2040,81,-10,-21,8,188,0,0,0,0,0,0,0,0,0,0,0,
0,0,-51,2041,79,-9,-19,4,183,0,0,0,0,0,0,0,0,0,0,0,
0,0,-48,2045,78,-10,-19,4,188,0,0,0,0,0,0,0,0,0,0,0,
0,0,-48,2045,78,-10,-19,4,188,0,0,0,0,0,0,0,0,0,0,0,
0,0,-48,2049,79,-10,-19,4,194,0,0,0,0,0,0,0,0,0,0,0,
0,0,-46,2036,79,-8,-15,4,188,0,0,0,0,0,0,0,0,0,0,0,
0,0,-52,2044,79,-7,-17,4,189,0,0,0,0,0,0,0,0,0,0,0,
0,0,-52,2044,79,-8,-20,7,188,0,0,0,0,0,0,0,0,0,0,0,
0,0,-52,2037,86,-7,-18,6,190,0,0,0,0,0,0,0,0,0,0,0,
0,0,-47,2040,81,-9,-17,6,192,0,0,0,0,0,0,0,0,0,0,0,
0,0,-50,2037,82,-10,-20,5,182,0,0,0,0,0,0,0,0,0,0,0,
0,0,-50,2050,82,-8,-19,5,199,0,0,0,0,0,0,0,0,0,0,0,
0,0,-53,2040,74,-11,-20,7,175,0,0,0,0,0,0,0,0,0,0,0,
0,0,-53,2040,74,-8,-20,6,177,0,0,0,0,0,0,0,0,0,0,0,
0,0,-56,2046,69,-11,-18,5,173,0,0,0,0,0,0,0,0,0,0,0,
0,0,-49,2041,78,-9,-17,5,187,0,0,0,0,0,0,0,0,0,0,0,
0,0,-51,2041,74,-13,-15,5,179,0,0,0,0,0,0,0,0,0,0,0,
0,0,-48,2044,81,-6,-19,6,196,0,0,0,0,0,0,0,0,0,0,0,
0,0,-47,2039,79,-9,-19,5,186,0,0,0,0,0,0,0,0,0,0,0,
0,0,-46,2037,79,-10,-18,5,185,0,0,0,0,0,0,0,0,0,0,0,
0,0,-53,2038,76,-11,-15,10,183,0,0,0,0,0,0,0,0,0,0,0,
0,0,-51,2039,73,-11,-19,2,171,0,0,0,0,0,0,0,0,0,0,0,
0,0,-53,2038,82,-9,-18,5,183,0,0,0,0,0,0,0,0,0,0,0,
0,0,-50,2038,80,-7,-17,8,190,0,0,0,0,0,0,0,0,0,0,0,
0,0,-53,2050,76,-8,-21,7,190,0,0,0,0,0,0,0,0,0,0,0,
0,0,-46,2039,77,-6,-20,6,188,0,0,0,0,0,0,0,0,0,0,0,
0,0,-48,2035,81,-8,-17,5,186,0,0,0,0,0,0,0,0,0,0,0,
0,0,-50,2045,82,-10,-19,5,191,0,0,0,0,0,0,0,0,0,0,0,
0,0,-52,2039,82,-7,-16,5,189,0,0,0,0,0,0,0,0,0,0,0,
0,0,-51,2036,78,-8,-19,5,179,0,0,0,0,0,0,0,0,0,0,0,
0,0,-46,2034,74,-9,-18,7,180,0,0,0,0,0,0,0,0,0,0,0,
0,0,-54,2037,77,-5,-17,6,182,0,0,0,0,0,0,0,0,0,0,0,
0,0,-52,2043,79,-11,-18,4,183,0,0,0,0,0,0,0,0,0,0,0,
0,0,-45,2040,68,-11,-19,1,172,0,0,0,0,0,0,0,0,0,0,0,
0,0,-48,2041,80,-8,-16,4,191,0,0,0,0,0,0,0,0,0,0,0,
0,0,-50,2041,81,-7,-19,6,190,0,0,0,0,0,0,0,0,0,0,0,
0,0,-54,2037,77,-11,-18,5,174,0,0,0,0,0,0,0,0,0,0,0,
0,0,-52,2046,78,-11,-21,4,182,0,0,0,0,0,0,0,0,0,0,0,
0,0,-49,2042,81,-9,-20,8,191,0,0,0,0,0,0,0,0,0,0,0,
0,0,-51,2034,73,-9,-18,9,176,0,0,0,0,0,0,0,0,0,0,0,
0,0,-51,2040,77,-10,-16,6,184,0,0,0,0,0,0,0,0,0,0,0,
0,0,-62,2039,81,-9,-23,8,172,0,0,0,0,0,0,0,0,0,0,0,
0,0,-48,2037,81,-11,-17,6,186,0,0,0,0,0,0,0,0,0,0,0,
0,0,-51,2036,81,-8,-23,5,178,0,0,0,0,0,0,0,0,0,0,0,
0,0,-51,2042,80,-7,-17,4,189,0,0,0,0,0,0,0,0,0,0,0,
0,0,-50,2043,75,-9,-18,8,187,0,0,0,0,0,0,0,0,0,0,0,
0,0,-52,2045,82,-7,-17,3,192,0,0,0,0,0,0,0,0,0,0,0,
0,0,-58,2035,75,-7,-17,7,173,0,0,0,0,0,0,0,0,0,0,0,
0,0,-50,2046,76,-7,-17,7,193,0,0,0,0,0,0,0,0,0,0,0,
0,0,-51,2042,81,-8,-16,6,192,0,0,0,0,0,0,0,0,0,0,0,
0,0,-49,2035,76,-9,-17,7,181,0,0,0,0,0,0,0,0,0,0,0,
0,0,-49,2041,76,-8,-19,4,183,0,0,0,0,0,0,0,0,0,0,0,
0,0,-45,2041,74,-10,-20,6,184,0,0,0,0,0,0,0,0,0,0,0,
0,0,-47,2039,78,-9,-19,6,186,0,0,0,0,0,0,0,0,0,0,0,
0,0,-55,2042,79,-9,-16,9,188,0,0,0,0,0,0,0,0,0,0,0,
0,0,-55,2035,80,-3,-20,7,182,0,0,0,0,0,0,0,0,0,0,0,
0,0,-50,2037,76,-8,-18,9,184,0,0,0,0,0,0,0,0,0,0,0,
0,0,-52,2046,79,-7,-19,3,188,0,0,0,0,0,0,0,0,0,0,0,
0,0,-54,2044,83,-10,-19,5,187,0,0,0,0,0,0,0,0,0,0,0,
0,0,-45,2037,81,-8,-17,6,192,0,0,0,0,0,0,0,0,0,0,0,
0,0,-56,2046,78,-10,-19,2,179,0,0,0,0,0,0,0,0,0,0,0,
0,0,-47,2032,80,-7,-17,5,184,0,0,0,0,0,0,0,0,0,0,0,
0,0,-50,2042,69,-8,-14,8,185,0,0,0,0,0,0,0,0,0,0,0,
0,0,-49,2043,81,-7,-18,5,193,0,0,0,0,0,0,0,0,0,0,0,
0,0,-50,2033,88,-8,-19,5,187,0,0,0,0,0,0,0,0,0,0,0,
0,0,-53,2046,84,-9,-20,6,192,0,0,0,0,0,0,0,0,0,0,0,
0,0,-50,2038,75,-7,-17,7,184,0,0,0,0,0,0,0,0,0,0,0,
0,0,-55,2041,76,-5,-19,9,185,0,0,0,0,0,0,0,0,0,0,0,
0,0,-48,2040,80,-9,-18,2,185,0,0,0,0,0,0,0,0,0,0,0,
0,0,-47,2031,75,-6,-17,4,178,0,0,0,0,0,0,0,0,0,0,0,
0,0,-52,2034,72,-6,-17,7,176,0,0,0,0,0,0,0,0,0,0,0,
0,0,-45,2039,81,-8,-18,10,197,0,0,0,0,0,0,0,0,0,0,0,
0,0,-55,2036,77,-11,-17,4,172,0,0,0,0,0,0,0,0,0,0,0,
0,0,-53,2046,75,-7,-20,4,183,0,0,0,0,0,0,0,0,0,0,0,
0,0,-48,2036,82,-9,-17,7,189,0,0,0,0,0,0,0,0,0,0,0,
0,0,-50,2038,73,-7,-20,6,178,0,0,0,0,0,0,0,0,0,0,0,
0,0,-47,2039,78,-7,-14,5,192,0,0,0,0,0,0,0,0,0,0,0,
0,0,-54,2044,80,-9,-18,4,185,0,0,0,0,0,0,0,0,0,0,0,
0,0,-52,2041,82,-5,-17,8,195,0,0,0,0,0,0,0,0,0,0,0,
0,0,-61,2044,74,-6,-18,9,180,0,0,0,0,0,0,0,0,0,0,0,
0,0,-50,2035,72,-12,-18,10,175,0,0,0,0,0,0,0,0,0,0,0,
0,0,-54,2042,77,-10,-19,6,180,0,0,0,0,0,0,0,0,0,0,0,
0,0,-49,2040,75,-8,-19,5,182,0,0,0,0,0,0,0,0,0,0,0,
0,0,-50,2049,75,-3,-16,8,202,0,0,0,0,0,0,0,0,0,0,0,
0,0,-48,2045,75,-6,-19,5,190,0,0,0,0,0,0,0,0,0,0,0,
0,0,-47,2046,72,-9,-18,6,188,0,0,0,0,0,0,0,0,0,0,0,
0,0,-51,2042,80,-9,-16,3,187,0,0,0,0,0,0,0,0,0,0,0,
0,0,-47,2039,83,-5,-16,7,199,0,0,0,0,0,0,0,0,0,0,0,
0,0,-53,2041,80,-10,-19,8,185,0,0,0,0,0,0,0,0,0,0,0,
0,0,-54,2033,85,-9,-21,6,178,0,0,0,0,0,0,0,0,0,0,0,
0,0,-52,2040,75,-7,-16,7,185,0,0,0,0,0,0,0,0,0,0,0,
0,0,-51,2044,78,-8,-18,3,186,0,0,0,0,0,0,0,0,0,0,0,
0,0,-53,2041,81,-12,-21,3,177,0,0,0,0,0,0,0,0,0,0,0,
0,0,-53,2034,79,-8,-18,4,176,0,0,0,0,0,0,0,0,0,0,0,
0,0,-56,2044,82,-9,-18,5,186,0,0,0,0,0,0,0,0,0,0,0,
0,0,-56,2041,83,-10,-17,2,181,0,0,0,0,0,0,0,0,0,0,0,
0,0,-52,2041,78,-9,-20,8,184,0,0,0,0,0,0,0,0,0,0,0,
0,0,-56,2046,81,-11,-18,7,187,0,0,0,0,0,0,0,0,0,0,0,
0,0,-53,2043,79,-9,-16,5,187,0,0,0,0,0,0,0,0,0,0,0,
0,0,-51,2041,79,-11,-18,5,183,0,0,0,0,0,0,0,0,0,0,0,
0,0,-49,2045,79,-12,-16,6,191,0,0,0,0,0,0,0,0,0,0,0,
0,0,-45,2040,82,-10,-22,8,191,0,0,0,0,0,0,0,0,0,0,0,
0,0,-54,2034,77,-8,-19,8,176,0,0,0,0,0,0,0,0,0,0,0,
0,0,-47,2042,74,-7,-20,9,189,0,0,0,0,0,0,0,0,0,0,0,
0,0,-56,2041,77,-9,-17,7,181,0,0,0,0,0,0,0,0,0,0,0,
0,0,-44,2041,73,-8,-19,5,186,0,0,0,0,0,0,0,0,0,0,0,
0,0,-51,2036,78,-6,-15,5,185,0,0,0,0,0,0,0,0,0,0,0,
0,0,-53,2038,74,-6,-16,5,180,0,0,0,0,0,0,0,0,0,0,0,
0,0,-54,2036,79,-7,-19,4,177,0,0,0,0,0,0,0,0,0,0,0,
0,0,-55,2038,73,-11,-19,3,167,0,0,0,0,0,0,0,0,0,0,0,
0,0,-61,2043,77,-9,-18,5,175,0,0,0,0,0,0,0,0,0,0,0,
0,0,-52,2040,76,-9,-18,5,180,0,0,0,0,0,0,0,0,0,0,0,
0,0,-50,2038,80,-9,-18,5,184,0,0,0,0,0,0,0,0,0,0,0,
0,0,-50,2038,80,-8,-20,8,186,0,0,0,0,0,0,0,0,0,0,0,
0,0,-55,2037,78,-9,-15,4,178,0,0,0,0,0,0,0,0,0,0,0,
0,0,-52,2037,77,-9,-18,6,179,0,0,0,0,0,0,0,0,0,0,0,
0,0,-50,2038,79,-6,-18,3,184,0,0,0,0,0,0,0,0,0,0,0,
0,0,-50,2038,79,-7,-18,7,187,0,0,0,0,0,0,0,0,0,0,0,
0,0,-55,2040,83,-7,-18,2,183,0,0,0,0,0,0,0,0,0,0,0,
0,0,-49,2036,81,-12,-19,4,179,0,0,0,0,0,0,0,0,0,0,0,
0,0,-53,2043,77,-8,-15,8,190,0,0,0,0,0,0,0,0,0,0,0,
0,0,-53,2043,77,-7,-21,8,185,0,0,0,0,0,0,0,0,0,0,0,
0,0,-53,2040,75,-8,-19,5,178,0,0,0,0,0,0,0,0,0,0,0,
0,0,-45,2041,76,-9,-18,4,187,0,0,0,0,0,0,0,0,0,0,0,
0,0,-49,2043,76,-11,-19,6,184,0,0,0,0,0,0,0,0,0,0,0,
0,0,-46,2045,81,-5,-21,6,198,0,0,0,0,0,0,0,0,0,0,0,
0,0,-51,2034,73,-9,-19,6,172,0,0,0,0,0,0,0,0,0,0,0,
0,0,-50,2041,76,-11,-15,8,187,0,0,0,0,0,0,0,0,0,0,0,
0,0,-51,2038,71,-8,-18,7,177,0,0,0,0,0,0,0,0,0,0,0,
0,0,-46,2038,79,-7,-20,5,187,0,0,0,0,0,0,0,0,0,0,0,
0,0,-47,2039,77,-9,-18,4,184,0,0,0,0,0,0,0,0,0,0,0,
0,0,-46,2037,80,-7,-18,11,195,0,0,0,0,0,0,0,0,0,0,0,
0,0,-56,2045,82,-5,-22,4,186,0,0,0,0,0,0,0,0,0,0,0,
0,0,-48,2037,82,-9,-20,10,190,0,0,0,0,0,0,0,0,0,0,0,
0,0,-45,2040,79,-6,-21,7,192,0,0,0,0,0,0,0,0,0,0,0,
0,0,-60,2045,81,-11,-17,3,179,0,0,0,0,0,0,0,0,0,0,0,
0,0,-53,2038,84,-8,-20,6,185,0,0,0,0,0,0,0,0,0,0,0,
0,0,-49,2039,76,-12,-19,6,179,0,0,0,0,0,0,0,0,0,0,0,
0,0,-49,2038,71,-7,-18,3,176,0,0,0,0,0,0,0,0,0,0,0,
0,0,-51,2036,80,-11,-21,4,175,0,0,0,0,0,0,0,0,0,0,0,
0,0,-46,2035,74,-8,-16,5,182,0,0,0,0,0,0,0,0,0,0,0,
0,0,-51,2038,81,-12,-17,5,182,0,0,0,0,0,0,0,0,0,0,0,
0,0,-52,2041,70,-10,-20,8,175,0,0,0,0,0,0,0,0,0,0,0,
0,0,-53,2047,79,-8,-18,7,192,0,0,0,0,0,0,0,0,0,0,0,
0,0,-47,2042,81,-7,-16,12,203,0,0,0,0,0,0,0,0,0,0,0,
0,0,-55,2037,82,-6,-20,4,180,0,0,0,0,0,0,0,0,0,0,0,
0,0,-51,2044,83,-8,-19,6,193,0,0,0,0,0,0,0,0,0,0,0,
0,0,-48,2040,76,-11,-17,7,185,0,0,0,0,0,0,0,0,0,0,0,
0,0,-44,2042,81,-5,-16,8,204,0,0,0,0,0,0,0,0,0,0,0,
0,0,-52,2038,80,-9,-18,7,184,0,0,0,0,0,0,0,0,0,0,0,
0,0,-47,2041,74,-7,-20,9,188,0,0,0,0,0,0,0,0,0,0,0,
0,0,-53,2040,75,-9,-19,4,176,0,0,0,0,0,0,0,0,0,0,0,
0,0,-48,2043,75,-9,-19,6,186,0,0,0,0,0,0,0,0,0,0,0,
0,0,-52,2036,74,-9,-16,5,176,0,0,0,0,0,0,0,0,0,0,0,
0,0,-51,2042,73,-8,-18,3,179,0,0,0,0,0,0,0,0,0,0,0,
0,0,-51,2037,78,-7,-19,6,182,0,0,0,0,0,0,0,0,0,0,0,
0,0,-58,2039,77,-11,-17,3,171,0,0,0,0,0,0,0,0,0,0,0,
0,0,-46,2037,78,-10,-18,5,184,0,0,0,0,0,0,0,0,0,0,0,
0,0,-52,2035,80,-8,-21,9,181,0,0,0,0,0,0,0,0,0,0,0,
0,0,-50,2037,71,-11,-18,4,171,0,0,0,0,0,0,0,0,0,0,0,
0,0,-56,2037,84,-8,-16,4,183,0,0,0,0,0,0,0,0,0,0,0,
0,0,-51,2037,78,-8,-21,6,179,0,0,0,0,0,0,0,0,0,0,0,
0,0,-48,2045,76,-8,-19,4,188,0,0,0,0,0,0,0,0,0,0,0,
0,0,-53,2037,80,-5,-19,7,185,0,0,0,0,0,0,0,0,0,0,0,
0,0,-50,2039,74,-11,-19,5,176,0,0,0,0,0,0,0,0,0,0,0,
0,0,-40,2044,83,-9,-16,6,206,0,0,0,0,0,0,0,0,0,0,0,
0,0,-48,2040,81,-8,-19,7,191,0,0,0,0,0,0,0,0,0,0,0,
0,0,-58,2038,75,-9,-19,4,169,0,0,0,0,0,0,0,0,0,0,0,
0,0,-53,2041,78,-8,-19,6,183,0,0,0,0,0,0,0,0,0,0,0,
0,0,-55,2035,76,-8,-20,9,175,0,0,0,0,0,0,0,0,0,0,0,
0,0,-54,2046,85,-9,-17,8,197,0,0,0,0,0,0,0,0,0,0,0,
0,0,-50,2038,74,-4,-18,6,184,0,0,0,0,0,0,0,0,0,0,0,
0,0,-51,2042,75,-6,-17,9,190,0,0,0,0,0,0,0,0,0,0,0,
0,0,-51,2038,79,-7,-14,2,185,0,0,0,0,0,0,0,0,0,0,0,
0,0,-51,2040,77,-7,-14,4,187,0,0,0,0,0,0,0,0,0,0,0,
0,0,-49,2033,81,-8,-17,6,184,0,0,0,0,0,0,0,0,0,0,0,
0,0,-53,2043,79,-7,-19,7,188,0,0,0,0,0,0,0,0,0,0,0,
0,0,-49,2037,80,-11,-21,5,179,0,0,0,0,0,0,0,0,0,0,0,
0,0,-53,2044,79,-8,-18,6,188,0,0,0,0,0,0,0,0,0,0,0,
0,0,-47,2043,79,-11,-17,1,186,0,0,0,0,0,0,0,0,0,0,0,
0,0,-50,2050,76,-6,-19,6,196,0,0,0,0,0,0,0,0,0,0,0,
0,0,-52,2043,78,-5,-17,4,189,0,0,0,0,0,0,0,0,0,0,0,
0,0,-53,2032,67,-10,-17,3,160,0,0,0,0,0,0,0,0,0,0,0,
0,0,-56,2034,77,-6,-16,8,179,0,0,0,0,0,0,0,0,0,0,0,
0,0,-53,2036,81,-6,-19,5,182,0,0,0,0,0,0,0,0,0,0,0,
0,0,-51,2042,82,-9,-18,6,190,0,0,0,0,0,0,0,0,0,0,0,
0,0,-47,2045,76,-7,-17,6,194,0,0,0,0,0,0,0,0,0,0,0,
0,0,-49,2035,82,-8,-20,5,183,0,0,0,0,0,0,0,0,0,0,0,
0,0,-48,2041,79,-6,-14,5,195,0,0,0,0,0,0,0,0,0,0,0,
0,0,-53,2038,81,-10,-17,4,181,0,0,0,0,0,0,0,0,0,0,0,
0,0,-50,2039,82,-9,-19,5,186,0,0,0,0,0,0,0,0,0,0,0,
0,0,-45,2042,81,-9,-18,5,194,0,0,0,0,0,0,0,0,0,0,0,
0,0,-50,2038,80,-4,-18,7,191,0,0,0,0,0,0,0,0,0,0,0,
0,0,-52,2045,73,-8,-19,6,183,0,0,0,0,0,0,0,0,0,0,0,
0,0,-43,2038,84,-7,-17,4,197,0,0,0,0,0,0,0,0,0,0,0,
0,0,-46,2040,77,-6,-17,7,193,0,0,0,0,0,0,0,0,0,0,0,
0,0,-50,2044,77,-12,-21,7,183,0,0,0,0,0,0,0,0,0,0,0,
0,0,-53,2038,79,-3,-18,7,188,0,0,0,0,0,0,0,0,0,0,0,
0,0,-51,2038,79,-10,-20,6,180,0,0,0,0,0,0,0,0,0,0,0,
0,0,-53,2038,77,-8,-17,7,182,0,0,0,0,0,0,0,0,0,0,0,
0,0,-51,2036,76,-6,-21,6,178,0,0,0,0,0,0,0,0,0,0,0,
0,0,-43,2038,78,-9,-19,2,185,0,0,0,0,0,0,0,0,0,0,0,
0,0,-55,2035,78,-8,-16,5,177,0,0,0,0,0,0,0,0,0,0,0,
0,0,-49,2039,80,-7,-19,7,189,0,0,0,0,0,0,0,0,0,0,0,
0,0,-53,2034,74,-10,-19,3,167,0,0,0,0,0,0,0,0,0,0,0,
0,0,-56,2043,78,-8,-18,3,180,0,0,0,0,0,0,0,0,0,0,0,
0,0,-43,2034,76,-10,-19,7,183,0,0,0,0,0,0,0,0,0,0,0,
0,0,-51,2041,79,-9,-16,6,188,0,0,0,0,0,0,0,0,0,0,0,
0,0,-48,2039,83,-9,-18,4,189,0,0,0,0,0,0,0,0,0,0,0,
0,0,-50,2034,80,-8,-20,6,180,0,0,0,0,0,0,0,0,0,0,0,
0,0,-51,2034,74,-8,-18,6,175,0,0,0,0,0,0,0,0,0,0,0,
0,0,-42,2043,78,-7,-19,4,195,0,0,0,0,0,0,0,0,0,0,0,
0,0,-55,2040,81,-10,-18,5,181,0,0,0,0,0,0,0,0,0,0,0,
0,0,-48,2031,80,-6,-17,5,183,0,0,0,0,0,0,0,0,0,0,0,
0,0,-59,2042,81,-9,-19,3,177,0,0,0,0,0,0,0,0,0,0,0,
0,0,-46,2042,76,-6,-19,5,190,0,0,0,0,0,0,0,0,0,0,0,
0,0,-47,2039,78,-5,-22,5,186,0,0,0,0,0,0,0,0,0,0,0,
0,0,-49,2037,84,-10,-19,6,187,0,0,0,0,0,0,0,0,0,0,0,
0,0,-56,2045,71,-9,-16,3,176,0,0,0,0,0,0,0,0,0,0,0,
0,0,-46,2039,75,-8,-19,6,185,0,0,0,0,0,0,0,0,0,0,0,
0,0,-52,2041,81,-6,-16,9,195,0,0,0,0,0,0,0,0,0,0,0,
0,0,-45,2040,74,-8,-17,4,186,0,0,0,0,0,0,0,0,0,0,0,
0,0,-45,2040,74,-8,-17,4,186,0,0,0,0,0,0,0,0,0,0,0,
0,0,-54,2045,77,-7,-18,10,191,0,0,0,0,0,0,0,0,0,0,0,
0,0,-53,2036,81,-12,-17,6,179,0,0,0,0,0,0,0,0,0,0,0,
0,0,-50,2041,79,-9,-20,5,184,0,0,0,0,0,0,0,0,0,0,0,
0,0,-48,2041,75,-12,-18,4,180,0,0,0,0,0,0,0,0,0,0,0,
0,0,-48,2041,75,-7,-16,3,186,0,0,0,0,0,0,0,0,0,0,0,
0,0,-54,2038,78,-8,-19,4,177,0,0,0,0,0,0,0,0,0,0,0,
0,0,-49,2042,83,-10,-18,5,191,0,0,0,0,0,0,0,0,0,0,0,
0,0,-52,2035,79,-7,-19,8,182,0,0,0,0,0,0,0,0,0,0,0,
0,0,-52,2035,79,-7,-19,5,179,0,0,0,0,0,0,0,0,0,0,0,
0,0,-47,2042,81,-6,-19,7,196,0,0,0,0,0,0,0,0,0,0,0,
0,0,-47,2038,79,-8,-16,8,192,0,0,0,0,0,0,0,0,0,0,0,
0,0,-52,2033,78,-7,-17,5,178,0,0,0,0,0,0,0,0,0,0,0,
0,0,-52,2042,74,-8,-19,3,178,0,0,0,0,0,0,0,0,0,0,0,
0,0,-52,2042,74,-8,-19,3,178,0,0,0,0,0,0,0,0,0,0,0,
0,0,-53,2040,82,-10,-20,6,183,0,0,0,0,0,0,0,0,0,0,0,
0,0,-45,2047,78,-9,-17,5,197,0,0,0,0,0,0,0,0,0,0,0,
0,0,-52,2041,68,-7,-17,8,179,0,0,0,0,0,0,0,0,0,0,0,
0,0,-53,2035,79,-7,-21,5,176,0,0,0,0,0,0,0,0,0,0,0,
0,0,-47,2042,86,-10,-20,7,196,0,0,0,0,0,0,0,0,0,0,0,
0,0,-50,2040,84,-12,-17,4,187,0,0,0,0,0,0,0,0,0,0,0,
0,0,-47,2047,84,-9,-17,1,197,0,0,0,0,0,0,0,0,0,0,0,
0,0,-49,2043,75,-10,-18,6,185,0,0,0,0,0,0,0,0,0,0,0,
0,0,-50,2038,72,-9,-18,8,179,0,0,0,0,0,0,0,0,0,0,0,
0,0,-53,2045,78,-9,-20,5,184,0,0,0,0,0,0,0,0,0,0,0,
0,0,-48,2038,84,-8,-17,2,189,0,0,0,0,0,0,0,0,0,0,0,
0,0,-55,2044,69,-6,-16,1,175,0,0,0,0,0,0,0,0,0,0,0,
0,0,-51,2038,74,-5,-17,8,185,0,0,0,0,0,0,0,0,0,0,0,
0,0,-57,2045,83,-8,-15,7,193,0,0,0,0,0,0,0,0,0,0,0,
0,0,-47,2044,85,-12,-22,6,192,0,0,0,0,0,0,0,0,0,0,0,
0,0,-47,2044,75,-6,-18,7,193,0,0,0,0,0,0,0,0,0,0,0,
0,0,-51,2042,89,-10,-16,7,199,0,0,0,0,0,0,0,0,0,0,0,
0,0,-50,2041,78,-7,-20,7,187,0,0,0,0,0,0,0,0,0,0,0,
0,0,-56,2038,80,-10,-15,4,179,0,0,0,0,0,0,0,0,0,0,0,
0,0,-52,2040,84,-7,-23,4,184,0,0,0,0,0,0,0,0,0,0,0,
0,0,-53,2038,77,-8,-18,7,181,0,0,0,0,0,0,0,0,0,0,0,
0,0,-48,2041,80,-7,-20,5,189,0,0,0,0,0,0,0,0,0,0,0,
0,0,-53,2038,82,-6,-16,5,188,0,0,0,0,0,0,0,0,0,0,0,
0,0,-52,2039,85,-5,-17,6,194,0,0,0,0,0,0,0,0,0,0,0,
0,0,-52,2049,82,-10,-16,6,198,0,0,0,0,0,0,0,0,0,0,0,
0,0,-53,2041,80,-12,-20,7,181,0,0,0,0,0,0,0,0,0,0,0,
0,0,-51,2043,77,-7,-19,7,188,0,0,0,0,0,0,0,0,0,0,0,
0,0,-49,2032,76,-8,-18,6,177,0,0,0,0,0,0,0,0,0,0,0,
0,0,-52,2044,71,-12,-17,4,176,0,0,0,0,0,0,0,0,0,0,0,
0,0,-49,2038,77,-9,-17,6,184,0,0,0,0,0,0,0,0,0,0,0,
0,0,-47,2039,77,-9,-18,5,185,0,0,0,0,0,0,0,0,0,0,0,
0,0,-52,2044,78,-10,-16,6,188,0,0,0,0,0,0,0,0,0,0,0,
0,0,-50,2034,78,-8,-18,3,177,0,0,0,0,0,0,0,0,0,0,0,
0,0,-50,2046,74,-8,-18,6,188,0,0,0,0,0,0,0,0,0,0,0,
0,0,-61,2045,75,-9,-18,1,171,0,0,0,0,0,0,0,0,0,0,0,
0,0,-50,2036,78,-10,-14,6,184,0,0,0,0,0,0,0,0,0,0,0,
0,0,-46,2037,69,-10,-19,6,175,0,0,0,0,0,0,0,0,0,0,0,
0,0,-42,2045,79,-7,-19,6,200,0,0,0,0,0,0,0,0,0,0,0,
0,0,-50,2045,78,-5,-18,5,193,0,0,0,0,0,0,0,0,0,0,0,
0,0,-54,2033,82,-7,-18,6,180,0,0,0,0,0,0,0,0,0,0,0,
0,0,-48,2047,75,-10,-18,6,190,0,0,0,0,0,0,0,0,0,0,0,
0,0,-58,2044,78,-8,-18,3,179,0,0,0,0,0,0,0,0,0,0,0,
0,0,-49,2037,75,-8,-19,6,180,0,0,0,0,0,0,0,0,0,0,0,
0,0,-50,2041,77,-7,-20,3,182,0,0,0,0,0,0,0,0,0,0,0,
0,0,-44,2051,75,-8,-19,5,199,0,0,0,0,0,0,0,0,0,0,0,
0,0,-52,2041,72,-6,-20,7,180,0,0,0,0,0,0,0,0,0,0,0,
0,0,-52,2041,78,-10,-19,5,181,0,0,0,0,0,0,0,0,0,0,0,
0,0,-55,2037,84,-7,-18,6,185,0,0,0,0,0,0,0,0,0,0,0,
0,0,-50,2034,76,-6,-17,5,180,0,0,0,0,0,0,0,0,0,0,0,
0,0,-44,2044,79,-7,-19,4,195,0,0,0,0,0,0,0,0,0,0,0,
0,0,-53,2037,78,-7,-19,5,179,0,0,0,0,0,0,0,0,0,0,0,
0,0,-55,2046,74,-7,-20,5,181,0,0,0,0,0,0,0,0,0,0,0,
0,0,-51,2045,78,-6,-16,7,195,0,0,0,0,0,0,0,0,0,0,0,
0,0,-52,2036,72,-6,-19,7,176,0,0,0,0,0,0,0,0,0,0,0,
0,0,-50,2041,81,-8,-17,2,187,0,0,0,0,0,0,0,0,0,0,0,
0,0,-53,2043,80,-11,-16,8,189,0,0,0,0,0,0,0,0,0,0,0,
0,0,-48,2038,75,-8,-17,6,184,0,0,0,0,0,0,0,0,0,0,0,
0,0,-49,2038,82,-8,-16,6,191,0,0,0,0,0,0,0,0,0,0,0,
0,0,-46,2042,72,-8,-18,7,187,0,0,0,0,0,0,0,0,0,0,0,
0,0,-46,2037,77,-7,-18,6,187,0,0,0,0,0,0,0,0,0,0,0,
0,0,-44,2030,75,-10,-19,5,175,0,0,0,0,0,0,0,0,0,0,0,
0,0,-52,2044,81,-11,-17,2,185,0,0,0,0,0,0,0,0,0,0,0,
0,0,-50,2045,79,-6,-18,4,192,0,0,0,0,0,0,0,0,0,0,0,
0,0,-51,2037,78,-7,-21,5,179,0,0,0,0,0,0,0,0,0,0,0,
0,0,-50,2038,78,-6,-17,5,186,0,0,0,0,0,0,0,0,0,0,0,
0,0,-42,2041,76,-9,-18,2,188,0,0,0,0,0,0,0,0,0,0,0,
0,0,-48,2039,75,-10,-16,7,185,0,0,0,0,0,0,0,0,0,0,0,
0,0,-56,2033,82,-5,-20,13,185,0,0,0,0,0,0,0,0,0,0,0,
0,0,-55,2040,77,-8,-18,6,180,0,0,0,0,0,0,0,0,0,0,0,
0,0,-48,2035,76,-7,-20,3,177,0,0,0,0,0,0,0,0,0,0,0,
0,0,-49,2037,79,-9,-21,6,181,0,0,0,0,0,0,0,0,0,0,0,
0,0,-48,2041,78,-12,-19,4,182,0,0,0,0,0,0,0,0,0,0,0,
0,0,-53,2045,77,-7,-17,6,189,0,0,0,0,0,0,0,0,0,0,0,
0,0,-48,2037,76,-7,-19,4,181,0,0,0,0,0,0,0,0,0,0,0,
0,0,-51,2043,84,-10,-18,6,192,0,0,0,0,0,0,0,0,0,0,0,
0,0,-47,2040,86,-7,-20,8,198,0,0,0,0,0,0,0,0,0,0,0,
0,0,-54,2038,87,-9,-20,5,185,0,0,0,0,0,0,0,0,0,0,0,
0,0,-51,2031,87,-10,-19,8,184,0,0,0,0,0,0,0,0,0,0,0,
0,0,-51,2045,87,-7,-19,6,199,0,0,0,0,0,0,0,0,0,0,0,
