1,2,3,4,5,6,7,8,9,10,11,12,13,14,15,16,17,18,19,20,
UserData_20,Frame ID£º0x01,FC_ACC_X,FC_ACC_Y,FC_ACC_Z,FC_GYR_X,FC_GYR_Y,FC_GYR_Z,FC_STA_Shock,Frame ID£º0x02,FC_MAG_X,FC_MAG_Y,FC_MAG_Z,FC_ALT_BAR,FC_SenserTMP,FC_STA_BAR,FC_STA_MAG,Frame ID£º0x03,FC_ATT_ROL,FC_ATT_PIT,
0,0,-58,-2050,83,-10,-19,7,171,0,0,0,0,0,0,0,0,0,0,0,
0,0,-58,-2048,82,-10,-17,7,175,0,0,0,0,0,0,0,0,0,0,0,
0,0,-59,-2050,75,-6,-18,5,165,0,0,0,0,0,0,0,0,0,0,0,
0,0,-54,-2055,78,-6,-21,4,164,0,0,0,0,0,0,0,0,0,0,0,
0,0,-48,-2050,80,-9,-17,5,179,0,0,0,0,0,0,0,0,0,0,0,
0,0,-60,-2056,77,-7,-21,2,153,0,0,0,0,0,0,0,0,0,0,0,
0,0,-60,-2056,77,-7,-21,2,153,0,0,0,0,0,0,0,0,0,0,0,
0,0,-57,-2055,74,-6,-19,4,159,0,0,0,0,0,0,0,0,0,0,0,
0,0,-59,-2043,77,-10,-18,3,169,0,0,0,0,0,0,0,0,0,0,0,
0,0,-56,-2052,82,-10,-17,2,167,0,0,0,0,0,0,0,0,0,0,0,
0,0,-56,-2052,82,-10,-17,2,167,0,0,0,0,0,0,0,0,0,0,0,
0,0,-59,-2045,76,-6,-17,8,176,0,0,0,0,0,0,0,0,0,0,0,
0,0,-61,-2050,78,-7,-15,6,169,0,0,0,0,0,0,0,0,0,0,0,
0,0,-57,-2043,82,-6,-19,9,185,0,0,0,0,0,0,0,0,0,0,0,
0,0,-58,-2051,79,-10,-19,8,167,0,0,0,0,0,0,0,0,0,0,0,
0,0,-56,-2050,79,-8,-19,4,168,0,0,0,0,0,0,0,0,0,0,0,
0,0,-56,-2050,79,-7,-17,3,170,0,0,0,0,0,0,0,0,0,0,0,
0,0,-58,-2051,80,-6,-16,2,169,0,0,0,0,0,0,0,0,0,0,0,
0,0,-58,-2050,75,-11,-21,6,159,0,0,0,0,0,0,0,0,0,0,0,
0,0,-59,-2041,85,-10,-18,5,181,0,0,0,0,0,0,0,0,0,0,0,
0,0,-56,-2049,88,-10,-16,7,182,0,0,0,0,0,0,0,0,0,0,0,
0,0,-55,-2049,79,-9,-18,4,170,0,0,0,0,0,0,0,0,0,0,0,
0,0,-62,-2052,80,-12,-20,4,156,0,0,0,0,0,0,0,0,0,0,0,
0,0,-56,-2056,84,-10,-17,5,168,0,0,0,0,0,0,0,0,0,0,0,
0,0,-58,-2051,71,-9,-18,7,160,0,0,0,0,0,0,0,0,0,0,0,
0,0,-62,-2051,77,-8,-18,4,160,0,0,0,0,0,0,0,0,0,0,0,
0,0,-52,-2053,81,-7,-18,5,174,0,0,0,0,0,0,0,0,0,0,0,
0,0,-57,-2053,77,-11,-19,6,161,0,0,0,0,0,0,0,0,0,0,0,
0,0,-58,-2048,77,-7,-18,4,169,0,0,0,0,0,0,0,0,0,0,0,
0,0,-60,-2048,76,-7,-17,4,167,0,0,0,0,0,0,0,0,0,0,0,
0,0,-61,-2045,83,-9,-19,5,173,0,0,0,0,0,0,0,0,0,0,0,
0,0,-59,-2049,83,-8,-19,6,172,0,0,0,0,0,0,0,0,0,0,0,
0,0,-56,-2048,78,-7,-19,10,177,0,0,0,0,0,0,0,0,0,0,0,
0,0,-56,-2045,83,-8,-16,1,178,0,0,0,0,0,0,0,0,0,0,0,
0,0,-59,-2046,84,-6,-16,5,181,0,0,0,0,0,0,0,0,0,0,0,
0,0,-61,-2057,77,-10,-18,3,152,0,0,0,0,0,0,0,0,0,0,0,
0,0,-56,-2051,81,-13,-18,5,166,0,0,0,0,0,0,0,0,0,0,0,
0,0,-52,-2049,76,-6,-18,4,173,0,0,0,0,0,0,0,0,0,0,0,
0,0,-60,-2055,77,-8,-18,5,159,0,0,0,0,0,0,0,0,0,0,0,
0,0,-56,-2050,81,-6,-16,2,173,0,0,0,0,0,0,0,0,0,0,0,
0,0,-58,-2045,81,-9,-17,4,175,0,0,0,0,0,0,0,0,0,0,0,
0,0,-54,-2045,84,-6,-19,9,188,0,0,0,0,0,0,0,0,0,0,0,
0,0,-53,-2045,79,-8,-19,4,177,0,0,0,0,0,0,0,0,0,0,0,
0,0,-64,-2046,80,-11,-19,3,162,0,0,0,0,0,0,0,0,0,0,0,
0,0,-53,-2045,79,-10,-16,4,178,0,0,0,0,0,0,0,0,0,0,0,
0,0,-60,-2050,91,-9,-19,8,179,0,0,0,0,0,0,0,0,0,0,0,
0,0,-59,-2046,79,-7,-20,4,170,0,0,0,0,0,0,0,0,0,0,0,
0,0,-59,-2049,77,-10,-18,1,160,0,0,0,0,0,0,0,0,0,0,0,
0,0,-52,-2051,79,-8,-18,7,175,0,0,0,0,0,0,0,0,0,0,0,
0,0,-60,-2051,78,-12,-19,5,159,0,0,0,0,0,0,0,0,0,0,0,
0,0,-57,-2046,79,-8,-17,5,175,0,0,0,0,0,0,0,0,0,0,0,
0,0,-66,-2051,74,-6,-19,5,155,0,0,0,0,0,0,0,0,0,0,0,
0,0,-59,-2044,83,-10,-18,3,174,0,0,0,0,0,0,0,0,0,0,0,
0,0,-59,-2047,82,-8,-17,4,174,0,0,0,0,0,0,0,0,0,0,0,
0,0,-61,-2051,78,-9,-17,6,164,0,0,0,0,0,0,0,0,0,0,0,
0,0,-63,-2048,83,-9,-17,7,172,0,0,0,0,0,0,0,0,0,0,0,
0,0,-59,-2049,80,-7,-17,4,170,0,0,0,0,0,0,0,0,0,0,0,
0,0,-59,-2044,76,-5,-19,6,174,0,0,0,0,0,0,0,0,0,0,0,
0,0,-58,-2049,86,-8,-21,5,173,0,0,0,0,0,0,0,0,0,0,0,
0,0,-57,-2042,78,-7,-16,7,182,0,0,0,0,0,0,0,0,0,0,0,
0,0,-58,-2050,81,-10,-20,5,166,0,0,0,0,0,0,0,0,0,0,0,
0,0,-62,-2050,79,-7,-16,9,171,0,0,0,0,0,0,0,0,0,0,0,
0,0,-57,-2047,78,-9,-21,3,166,0,0,0,0,0,0,0,0,0,0,0,
0,0,-54,-2057,79,-7,-18,6,167,0,0,0,0,0,0,0,0,0,0,0,
0,0,-59,-2044,79,-9,-22,6,170,0,0,0,0,0,0,0,0,0,0,0,
0,0,-60,-2051,89,-7,-18,7,178,0,0,0,0,0,0,0,0,0,0,0,
0,0,-57,-2049,89,-8,-18,6,181,0,0,0,0,0,0,0,0,0,0,0,
0,0,-65,-2045,76,-8,-20,10,167,0,0,0,0,0,0,0,0,0,0,0,
0,0,-56,-2049,79,-5,-19,10,178,0,0,0,0,0,0,0,0,0,0,0,
0,0,-64,-2053,84,-7,-17,5,166,0,0,0,0,0,0,0,0,0,0,0,
0,0,-57,-2046,86,-9,-18,3,178,0,0,0,0,0,0,0,0,0,0,0,
0,0,-55,-2046,83,-8,-17,3,179,0,0,0,0,0,0,0,0,0,0,0,
0,0,-61,-2043,77,-8,-18,6,172,0,0,0,0,0,0,0,0,0,0,0,
0,0,-51,-2050,84,-8,-21,5,177,0,0,0,0,0,0,0,0,0,0,0,
0,0,-61,-2050,83,-7,-18,4,169,0,0,0,0,0,0,0,0,0,0,0,
0,0,-58,-2053,79,-5,-18,4,167,0,0,0,0,0,0,0,0,0,0,0,
0,0,-58,-2053,76,-6,-20,5,162,0,0,0,0,0,0,0,0,0,0,0,
0,0,-63,-2050,75,-8,-20,3,155,0,0,0,0,0,0,0,0,0,0,0,
0,0,-57,-2052,80,-11,-18,5,165,0,0,0,0,0,0,0,0,0,0,0,
0,0,-59,-2041,75,-7,-18,7,176,0,0,0,0,0,0,0,0,0,0,0,
0,0,-55,-2049,80,-6,-15,5,178,0,0,0,0,0,0,0,0,0,0,0,
0,0,-56,-2050,81,-10,-17,6,172,0,0,0,0,0,0,0,0,0,0,0,
0,0,-61,-2054,84,-11,-18,4,162,0,0,0,0,0,0,0,0,0,0,0,
0,0,-63,-2060,83,-7,-16,4,159,0,0,0,0,0,0,0,0,0,0,0,
0,0,-57,-2051,79,-8,-21,3,163,0,0,0,0,0,0,0,0,0,0,0,
0,0,-63,-2047,75,-6,-14,6,170,0,0,0,0,0,0,0,0,0,0,0,
0,0,-57,-2048,77,-7,-18,3,169,0,0,0,0,0,0,0,0,0,0,0,
0,0,-62,-2054,84,-6,-16,4,168,0,0,0,0,0,0,0,0,0,0,0,
0,0,-55,-2045,74,-8,-19,6,172,0,0,0,0,0,0,0,0,0,0,0,
0,0,-56,-2048,80,-7,-21,4,171,0,0,0,0,0,0,0,0,0,0,0,
0,0,-52,-2050,86,-9,-20,2,175,0,0,0,0,0,0,0,0,0,0,0,
0,0,-60,-2053,80,-10,-20,6,161,0,0,0,0,0,0,0,0,0,0,0,
0,0,-66,-2047,71,-7,-18,9,161,0,0,0,0,0,0,0,0,0,0,0,
0,0,-59,-2050,79,-8,-18,7,169,0,0,0,0,0,0,0,0,0,0,0,
0,0,-61,-2044,84,-7,-18,5,178,0,0,0,0,0,0,0,0,0,0,0,
0,0,-55,-2050,76,-8,-20,3,164,0,0,0,0,0,0,0,0,0,0,0,
0,0,-64,-2051,82,-6,-20,3,162,0,0,0,0,0,0,0,0,0,0,0,
0,0,-55,-2053,81,-8,-18,4,169,0,0,0,0,0,0,0,0,0,0,0,
0,0,-57,-2047,78,-8,-18,4,171,0,0,0,0,0,0,0,0,0,0,0,
0,0,-63,-2049,78,-7,-19,5,163,0,0,0,0,0,0,0,0,0,0,0,
0,0,-55,-2050,83,-4,-17,4,179,0,0,0,0,0,0,0,0,0,0,0,
0,0,-54,-2040,87,-9,-19,3,187,0,0,0,0,0,0,0,0,0,0,0,
0,0,-54,-2055,84,-7,-17,7,176,0,0,0,0,0,0,0,0,0,0,0,
0,0,-54,-2048,76,-9,-17,5,172,0,0,0,0,0,0,0,0,0,0,0,
0,0,-57,-2053,75,-8,-19,5,161,0,0,0,0,0,0,0,0,0,0,0,
0,0,-56,-2047,81,-4,-16,5,182,0,0,0,0,0,0,0,0,0,0,0,
0,0,-58,-2048,81,-6,-19,4,173,0,0,0,0,0,0,0,0,0,0,0,
0,0,-65,-2049,80,-10,-18,4,160,0,0,0,0,0,0,0,0,0,0,0,
0,0,-65,-2046,82,-5,-18,8,175,0,0,0,0,0,0,0,0,0,0,0,
0,0,-54,-2050,77,-5,-17,4,173,0,0,0,0,0,0,0,0,0,0,0,
0,0,-54,-2048,82,-9,-22,6,174,0,0,0,0,0,0,0,0,0,0,0,
0,0,-67,-2046,83,-6,-20,5,168,0,0,0,0,0,0,0,0,0,0,0,
0,0,-56,-2050,80,-8,-18,9,175,0,0,0,0,0,0,0,0,0,0,0,
0,0,-50,-2046,83,-8,-18,9,189,0,0,0,0,0,0,0,0,0,0,0,
0,0,-58,-2049,83,-8,-19,5,172,0,0,0,0,0,0,0,0,0,0,0,
0,0,-60,-2053,77,-8,-19,5,160,0,0,0,0,0,0,0,0,0,0,0,
0,0,-60,-2053,77,-6,-17,4,163,0,0,0,0,0,0,0,0,0,0,0,
0,0,-59,-2045,79,-4,-18,6,178,0,0,0,0,0,0,0,0,0,0,0,
0,0,-61,-2050,76,-7,-18,5,163,0,0,0,0,0,0,0,0,0,0,0,
0,0,-60,-2051,78,-10,-18,2,159,0,0,0,0,0,0,0,0,0,0,0,
0,0,-60,-2051,78,-8,-19,5,163,0,0,0,0,0,0,0,0,0,0,0,
0,0,-54,-2059,71,-8,-19,8,157,0,0,0,0,0,0,0,0,0,0,0,
0,0,-53,-2051,85,-9,-20,6,176,0,0,0,0,0,0,0,0,0,0,0,
0,0,-59,-2048,75,-9,-20,5,163,0,0,0,0,0,0,0,0,0,0,0,
0,0,-59,-2048,75,-6,-18,8,171,0,0,0,0,0,0,0,0,0,0,0,
0,0,-56,-2052,82,-7,-16,5,174,0,0,0,0,0,0,0,0,0,0,0,
0,0,-58,-2041,80,-5,-21,8,182,0,0,0,0,0,0,0,0,0,0,0,
0,0,-59,-2048,79,-11,-16,5,169,0,0,0,0,0,0,0,0,0,0,0,
0,0,-60,-2049,82,-6,-18,3,170,0,0,0,0,0,0,0,0,0,0,0,
0,0,-56,-2048,79,-7,-20,6,173,0,0,0,0,0,0,0,0,0,0,0,
0,0,-56,-2050,82,-6,-16,5,177,0,0,0,0,0,0,0,0,0,0,0,
0,0,-54,-2051,84,-7,-18,6,178,0,0,0,0,0,0,0,0,0,0,0,
0,0,-60,-2045,79,-7,-20,5,171,0,0,0,0,0,0,0,0,0,0,0,
0,0,-58,-2049,73,-9,-19,3,159,0,0,0,0,0,0,0,0,0,0,0,
0,0,-61,-2046,82,-8,-18,6,174,0,0,0,0,0,0,0,0,0,0,0,
0,0,-62,-2049,77,-8,-21,5,160,0,0,0,0,0,0,0,0,0,0,0,
0,0,-51,-2048,80,-4,-19,5,182,0,0,0,0,0,0,0,0,0,0,0,
0,0,-57,-2050,78,-7,-20,6,168,0,0,0,0,0,0,0,0,0,0,0,
0,0,-56,-2055,81,-2,-20,7,173,0,0,0,0,0,0,0,0,0,0,0,
0,0,-67,-2043,83,-10,-19,7,170,0,0,0,0,0,0,0,0,0,0,0,
0,0,-54,-2048,79,-8,-19,5,174,0,0,0,0,0,0,0,0,0,0,0,
0,0,-54,-2051,83,-5,-17,6,180,0,0,0,0,0,0,0,0,0,0,0,
0,0,-56,-2048,85,-6,-15,4,183,0,0,0,0,0,0,0,0,0,0,0,
0,0,-57,-2043,88,-9,-18,4,184,0,0,0,0,0,0,0,0,0,0,0,
0,0,-51,-2045,78,-9,-20,5,177,0,0,0,0,0,0,0,0,0,0,0,
0,0,-67,-2046,75,-7,-16,6,164,0,0,0,0,0,0,0,0,0,0,0,
0,0,-58,-2052,80,-3,-16,6,175,0,0,0,0,0,0,0,0,0,0,0,
0,0,-56,-2051,82,-4,-20,6,175,0,0,0,0,0,0,0,0,0,0,0,
0,0,-58,-2046,75,-8,-21,3,164,0,0,0,0,0,0,0,0,0,0,0,
0,0,-58,-2057,87,-9,-16,4,169,0,0,0,0,0,0,0,0,0,0,0,
0,0,-56,-2047,82,-9,-22,6,173,0,0,0,0,0,0,0,0,0,0,0,
0,0,-56,-2053,90,-5,-19,8,183,0,0,0,0,0,0,0,0,0,0,0,
0,0,-58,-2046,81,-9,-21,5,171,0,0,0,0,0,0,0,0,0,0,0,
0,0,-60,-2045,82,-6,-18,10,182,0,0,0,0,0,0,0,0,0,0,0,
0,0,-55,-2052,80,-10,-19,7,169,0,0,0,0,0,0,0,0,0,0,0,
0,0,-54,-2053,85,-6,-20,9,179,0,0,0,0,0,0,0,0,0,0,0,
0,0,-56,-2052,76,-8,-16,4,166,0,0,0,0,0,0,0,0,0,0,0,
0,0,-60,-2051,85,-8,-19,6,171,0,0,0,0,0,0,0,0,0,0,0,
0,0,-53,-2052,78,-7,-19,5,170,0,0,0,0,0,0,0,0,0,0,0,
0,0,-56,-2049,85,-13,-18,2,169,0,0,0,0,0,0,0,0,0,0,0,
0,0,-58,-2052,80,-11,-19,5,163,0,0,0,0,0,0,0,0,0,0,0,
0,0,-62,-2051,79,-3,-15,8,174,0,0,0,0,0,0,0,0,0,0,0,
0,0,-54,-2056,75,-4,-17,8,170,0,0,0,0,0,0,0,0,0,0,0,
0,0,-55,-2054,76,-6,-20,5,164,0,0,0,0,0,0,0,0,0,0,0,
0,0,-56,-2050,88,-8,-19,1,174,0,0,0,0,0,0,0,0,0,0,0,
0,0,-61,-2049,82,-5,-20,7,172,0,0,0,0,0,0,0,0,0,0,0,
0,0,-60,-2048,74,-5,-22,5,163,0,0,0,0,0,0,0,0,0,0,0,
0,0,-58,-2055,82,-7,-16,4,168,0,0,0,0,0,0,0,0,0,0,0,
0,0,-55,-2053,76,-8,-16,6,168,0,0,0,0,0,0,0,0,0,0,0,
0,0,-59,-2054,83,-9,-17,5,167,0,0,0,0,0,0,0,0,0,0,0,
0,0,-55,-2052,77,-7,-19,6,168,0,0,0,0,0,0,0,0,0,0,0,
0,0,-60,-2048,78,-5,-20,8,172,0,0,0,0,0,0,0,0,0,0,0,
0,0,-53,-2045,76,-4,-18,6,181,0,0,0,0,0,0,0,0,0,0,0,
0,0,-61,-2053,90,-5,-17,7,179,0,0,0,0,0,0,0,0,0,0,0,
0,0,-51,-2055,82,-5,-15,4,178,0,0,0,0,0,0,0,0,0,0,0,
0,0,-49,-2052,67,-7,-18,2,161,0,0,0,0,0,0,0,0,0,0,0,
0,0,-57,-2047,82,-7,-19,6,177,0,0,0,0,0,0,0,0,0,0,0,
0,0,-59,-2042,82,-6,-20,7,181,0,0,0,0,0,0,0,0,0,0,0,
0,0,-55,-2052,75,-7,-19,7,167,0,0,0,0,0,0,0,0,0,0,0,
0,0,-59,-2047,71,-3,-18,7,170,0,0,0,0,0,0,0,0,0,0,0,
0,0,-65,-2052,78,-6,-17,4,160,0,0,0,0,0,0,0,0,0,0,0,
0,0,-58,-2048,79,-9,-16,6,173,0,0,0,0,0,0,0,0,0,0,0,
0,0,-60,-2051,81,-6,-19,4,167,0,0,0,0,0,0,0,0,0,0,0,
0,0,-59,-2050,83,-8,-19,1,166,0,0,0,0,0,0,0,0,0,0,0,
0,0,-51,-2047,81,-6,-16,9,189,0,0,0,0,0,0,0,0,0,0,0,
0,0,-59,-2046,71,-7,-18,7,167,0,0,0,0,0,0,0,0,0,0,0,
0,0,-55,-2048,80,-7,-21,3,171,0,0,0,0,0,0,0,0,0,0,0,
0,0,-54,-2052,82,-9,-16,6,175,0,0,0,0,0,0,0,0,0,0,0,
0,0,-63,-2048,75,-8,-19,6,162,0,0,0,0,0,0,0,0,0,0,0,
0,0,-52,-2052,86,-4,-19,4,181,0,0,0,0,0,0,0,0,0,0,0,
0,0,-67,-2048,84,-6,-18,4,168,0,0,0,0,0,0,0,0,0,0,0,
0,0,-56,-2057,83,-5,-19,7,171,0,0,0,0,0,0,0,0,0,0,0,
0,0,-54,-2046,83,-6,-18,6,184,0,0,0,0,0,0,0,0,0,0,0,
0,0,-52,-2050,85,-5,-18,5,183,0,0,0,0,0,0,0,0,0,0,0,
0,0,-53,-2047,85,-5,-19,5,185,0,0,0,0,0,0,0,0,0,0,0,
0,0,-57,-2052,78,-6,-18,6,169,0,0,0,0,0,0,0,0,0,0,0,
0,0,-55,-2048,80,-8,-21,5,172,0,0,0,0,0,0,0,0,0,0,0,
0,0,-56,-2053,78,-6,-17,4,168,0,0,0,0,0,0,0,0,0,0,0,
0,0,-61,-2049,80,-8,-19,5,166,0,0,0,0,0,0,0,0,0,0,0,
0,0,-58,-2051,80,-9,-17,6,169,0,0,0,0,0,0,0,0,0,0,0,
0,0,-53,-2049,81,-8,-20,8,177,0,0,0,0,0,0,0,0,0,0,0,
0,0,-56,-2051,83,-7,-18,5,174,0,0,0,0,0,0,0,0,0,0,0,
0,0,-57,-2048,82,-10,-19,1,168,0,0,0,0,0,0,0,0,0,0,0,
0,0,-60,-2050,80,-10,-16,5,167,0,0,0,0,0,0,0,0,0,0,0,
0,0,-54,-2049,82,-7,-22,4,172,0,0,0,0,0,0,0,0,0,0,0,
0,0,-54,-2048,75,-6,-16,2,172,0,0,0,0,0,0,0,0,0,0,0,
0,0,-60,-2046,78,-10,-20,4,165,0,0,0,0,0,0,0,0,0,0,0,
0,0,-57,-2050,78,-12,-15,8,170,0,0,0,0,0,0,0,0,0,0,0,
0,0,-55,-2047,81,-9,-17,7,179,0,0,0,0,0,0,0,0,0,0,0,
0,0,-61,-2049,79,-9,-20,5,163,0,0,0,0,0,0,0,0,0,0,0,
0,0,-59,-2049,88,-11,-17,6,176,0,0,0,0,0,0,0,0,0,0,0,
0,0,-61,-2050,76,-10,-19,5,159,0,0,0,0,0,0,0,0,0,0,0,
0,0,-51,-2053,76,-8,-18,9,173,0,0,0,0,0,0,0,0,0,0,0,
0,0,-63,-2053,72,-9,-16,3,152,0,0,0,0,0,0,0,0,0,0,0,
0,0,-56,-2053,79,-9,-18,6,167,0,0,0,0,0,0,0,0,0,0,0,
0,0,-58,-2045,85,-11,-16,6,180,0,0,0,0,0,0,0,0,0,0,0,
0,0,-59,-2046,80,-8,-16,7,177,0,0,0,0,0,0,0,0,0,0,0,
0,0,-64,-2050,84,-8,-16,5,169,0,0,0,0,0,0,0,0,0,0,0,
0,0,-57,-2050,82,-8,-19,8,174,0,0,0,0,0,0,0,0,0,0,0,
0,0,-61,-2052,79,-12,-18,4,158,0,0,0,0,0,0,0,0,0,0,0,
0,0,-59,-2044,80,-6,-18,6,178,0,0,0,0,0,0,0,0,0,0,0,
0,0,-60,-2052,80,-9,-16,4,165,0,0,0,0,0,0,0,0,0,0,0,
0,0,-54,-2047,79,-8,-18,3,174,0,0,0,0,0,0,0,0,0,0,0,
0,0,-60,-2045,83,-5,-21,6,177,0,0,0,0,0,0,0,0,0,0,0,
0,0,-60,-2045,83,-5,-21,6,177,0,0,0,0,0,0,0,0,0,0,0,
0,0,-51,-2047,78,-7,-19,6,179,0,0,0,0,0,0,0,0,0,0,0,
0,0,-58,-2048,77,-8,-17,6,171,0,0,0,0,0,0,0,0,0,0,0,
0,0,-56,-2050,78,-8,-17,4,169,0,0,0,0,0,0,0,0,0,0,0,
0,0,-56,-2050,78,-8,-17,4,169,0,0,0,0,0,0,0,0,0,0,0,
0,0,-53,-2057,82,-9,-18,5,168,0,0,0,0,0,0,0,0,0,0,0,
0,0,-58,-2048,77,-10,-16,4,168,0,0,0,0,0,0,0,0,0,0,0,
0,0,-61,-2044,83,-5,-20,4,176,0,0,0,0,0,0,0,0,0,0,0,
0,0,-58,-2053,81,-7,-18,4,167,0,0,0,0,0,0,0,0,0,0,0,
0,0,-58,-2053,81,-8,-16,7,171,0,0,0,0,0,0,0,0,0,0,0,
0,0,-58,-2052,83,-7,-17,5,172,0,0,0,0,0,0,0,0,0,0,0,
0,0,-56,-2049,74,-7,-20,3,163,0,0,0,0,0,0,0,0,0,0,0,
0,0,-60,-2042,75,-7,-17,5,173,0,0,0,0,0,0,0,0,0,0,0,
0,0,-55,-2047,72,-8,-19,3,165,0,0,0,0,0,0,0,0,0,0,0,
0,0,-62,-2045,75,-9,-16,6,168,0,0,0,0,0,0,0,0,0,0,0,
0,0,-55,-2049,85,-9,-19,6,177,0,0,0,0,0,0,0,0,0,0,0,
0,0,-55,-2054,79,-11,-19,5,163,0,0,0,0,0,0,0,0,0,0,0,
0,0,-52,-2049,84,-8,-19,4,178,0,0,0,0,0,0,0,0,0,0,0,
0,0,-57,-2045,85,-7,-18,6,183,0,0,0,0,0,0,0,0,0,0,0,
0,0,-54,-2044,81,-7,-18,3,180,0,0,0,0,0,0,0,0,0,0,0,
0,0,-52,-2041,77,-9,-19,2,177,0,0,0,0,0,0,0,0,0,0,0,
0,0,-57,-2054,71,-8,-19,4,155,0,0,0,0,0,0,0,0,0,0,0,
0,0,-54,-2055,80,-8,-21,5,165,0,0,0,0,0,0,0,0,0,0,0,
0,0,-58,-2056,80,-9,-17,5,163,0,0,0,0,0,0,0,0,0,0,0,
0,0,-59,-2052,78,-6,-17,4,166,0,0,0,0,0,0,0,0,0,0,0,
0,0,-55,-2047,83,-7,-19,8,182,0,0,0,0,0,0,0,0,0,0,0,
0,0,-56,-2050,83,-10,-18,7,174,0,0,0,0,0,0,0,0,0,0,0,
0,0,-57,-2049,78,-7,-15,4,172,0,0,0,0,0,0,0,0,0,0,0,
0,0,-56,-2044,79,-8,-18,11,183,0,0,0,0,0,0,0,0,0,0,0,
0,0,-59,-2044,81,-11,-21,5,170,0,0,0,0,0,0,0,0,0,0,0,
0,0,-59,-2050,83,-3,-20,6,175,0,0,0,0,0,0,0,0,0,0,0,
0,0,-59,-2049,80,-9,-16,3,168,0,0,0,0,0,0,0,0,0,0,0,
0,0,-59,-2048,85,-4,-19,6,180,0,0,0,0,0,0,0,0,0,0,0,
0,0,-63,-2049,81,-8,-18,8,169,0,0,0,0,0,0,0,0,0,0,0,
0,0,-57,-2049,76,-7,-20,9,170,0,0,0,0,0,0,0,0,0,0,0,
0,0,-54,-2049,75,-7,-18,4,169,0,0,0,0,0,0,0,0,0,0,0,
0,0,-60,-2046,77,-9,-20,6,167,0,0,0,0,0,0,0,0,0,0,0,
0,0,-56,-2057,83,-6,-20,5,167,0,0,0,0,0,0,0,0,0,0,0,
0,0,-57,-2054,78,-5,-17,6,169,0,0,0,0,0,0,0,0,0,0,0,
0,0,-60,-2051,83,-8,-17,4,169,0,0,0,0,0,0,0,0,0,0,0,
0,0,-54,-2055,83,-7,-17,5,173,0,0,0,0,0,0,0,0,0,0,0,
0,0,-54,-2047,79,-7,-20,3,173,0,0,0,0,0,0,0,0,0,0,0,
0,0,-64,-2051,74,-6,-17,5,159,0,0,0,0,0,0,0,0,0,0,0,
0,0,-55,-2049,74,-6,-17,5,170,0,0,0,0,0,0,0,0,0,0,0,
0,0,-59,-2047,73,-9,-16,6,167,0,0,0,0,0,0,0,0,0,0,0,
0,0,-53,-2045,73,-11,-15,7,175,0,0,0,0,0,0,0,0,0,0,0,
0,0,-52,-2053,86,-7,-17,7,182,0,0,0,0,0,0,0,0,0,0,0,
0,0,-59,-2051,84,-5,-15,6,178,0,0,0,0,0,0,0,0,0,0,0,
0,0,-61,-2046,80,-9,-18,8,173,0,0,0,0,0,0,0,0,0,0,0,
0,0,-60,-2048,84,-10,-18,5,172,0,0,0,0,0,0,0,0,0,0,0,
0,0,-66,-2058,66,-10,-19,4,135,0,0,0,0,0,0,0,0,0,0,0,
0,0,-64,-2048,79,-7,-14,3,168,0,0,0,0,0,0,0,0,0,0,0,
0,0,-66,-2047,86,-3,-19,6,176,0,0,0,0,0,0,0,0,0,0,0,
0,0,-55,-2050,77,-10,-17,10,173,0,0,0,0,0,0,0,0,0,0,0,
0,0,-58,-2049,76,-10,-16,6,167,0,0,0,0,0,0,0,0,0,0,0,
0,0,-55,-2049,79,-6,-18,5,174,0,0,0,0,0,0,0,0,0,0,0,
0,0,-54,-2043,77,-7,-20,7,179,0,0,0,0,0,0,0,0,0,0,0,
0,0,-53,-2050,81,-8,-17,5,176,0,0,0,0,0,0,0,0,0,0,0,
0,0,-54,-2048,84,-9,-17,2,177,0,0,0,0,0,0,0,0,0,0,0,
0,0,-62,-2039,82,-7,-18,8,183,0,0,0,0,0,0,0,0,0,0,0,
0,0,-57,-2050,77,-9,-21,7,165,0,0,0,0,0,0,0,0,0,0,0,
0,0,-60,-2046,70,-7,-19,7,164,0,0,0,0,0,0,0,0,0,0,0,
0,0,-54,-2051,81,-3,-21,7,177,0,0,0,0,0,0,0,0,0,0,0,
0,0,-65,-2054,83,-9,-19,3,157,0,0,0,0,0,0,0,0,0,0,0,
0,0,-59,-2045,81,-9,-17,1,171,0,0,0,0,0,0,0,0,0,0,0,
0,0,-61,-2045,82,-9,-19,7,174,0,0,0,0,0,0,0,0,0,0,0,
0,0,-57,-2046,88,-8,-19,4,181,0,0,0,0,0,0,0,0,0,0,0,
0,0,-57,-2054,78,-6,-16,5,168,0,0,0,0,0,0,0,0,0,0,0,
0,0,-60,-2047,73,-7,-16,7,169,0,0,0,0,0,0,0,0,0,0,0,
0,0,-57,-2051,81,-7,-18,8,174,0,0,0,0,0,0,0,0,0,0,0,
0,0,-59,-2052,80,-7,-19,3,164,0,0,0,0,0,0,0,0,0,0,0,
0,0,-58,-2040,83,-11,-17,8,184,0,0,0,0,0,0,0,0,0,0,0,
0,0,-60,-2048,78,-10,-19,5,165,0,0,0,0,0,0,0,0,0,0,0,
0,0,-60,-2051,76,-5,-16,7,169,0,0,0,0,0,0,0,0,0,0,0,
0,0,-56,-2048,86,-8,-18,7,182,0,0,0,0,0,0,0,0,0,0,0,
0,0,-58,-2043,81,-8,-18,7,180,0,0,0,0,0,0,0,0,0,0,0,
0,0,-58,-2049,84,-9,-20,4,170,0,0,0,0,0,0,0,0,0,0,0,
0,0,-55,-2051,77,-7,-19,9,172,0,0,0,0,0,0,0,0,0,0,0,
0,0,-56,-2047,80,-6,-18,1,173,0,0,0,0,0,0,0,0,0,0,0,
0,0,-60,-2049,81,-6,-19,7,172,0,0,0,0,0,0,0,0,0,0,0,
0,0,-61,-2050,77,-6,-18,6,166,0,0,0,0,0,0,0,0,0,0,0,
0,0,-57,-2049,79,-5,-17,2,171,0,0,0,0,0,0,0,0,0,0,0,
0,0,-62,-2049,81,-5,-18,6,171,0,0,0,0,0,0,0,0,0,0,0,
0,0,-57,-2049,78,-9,-21,8,168,0,0,0,0,0,0,0,0,0,0,0,
0,0,-54,-2048,85,-9,-17,3,179,0,0,0,0,0,0,0,0,0,0,0,
0,0,-52,-2052,82,-8,-18,8,178,0,0,0,0,0,0,0,0,0,0,0,
0,0,-54,-2048,77,-8,-16,7,177,0,0,0,0,0,0,0,0,0,0,0,
0,0,-58,-2048,83,-7,-19,8,178,0,0,0,0,0,0,0,0,0,0,0,
0,0,-53,-2047,81,-5,-19,6,182,0,0,0,0,0,0,0,0,0,0,0,
0,0,-56,-2046,83,-7,-19,6,180,0,0,0,0,0,0,0,0,0,0,0,
0,0,-60,-2044,84,-7,-19,5,178,0,0,0,0,0,0,0,0,0,0,0,
0,0,-57,-2049,79,-9,-16,5,171,0,0,0,0,0,0,0,0,0,0,0,
0,0,-52,-2050,83,-3,-19,4,181,0,0,0,0,0,0,0,0,0,0,0,
0,0,-57,-2053,83,-7,-20,7,171,0,0,0,0,0,0,0,0,0,0,0,
0,0,-57,-2056,82,-8,-19,8,168,0,0,0,0,0,0,0,0,0,0,0,
0,0,-57,-2046,86,-10,-17,3,178,0,0,0,0,0,0,0,0,0,0,0,
0,0,-62,-2050,86,-7,-20,5,170,0,0,0,0,0,0,0,0,0,0,0,
0,0,-53,-2052,74,-6,-19,1,163,0,0,0,0,0,0,0,0,0,0,0,
0,0,-54,-2045,79,-6,-19,6,180,0,0,0,0,0,0,0,0,0,0,0,
0,0,-59,-2048,85,-9,-19,4,173,0,0,0,0,0,0,0,0,0,0,0,
0,0,-56,-2049,76,-9,-18,3,165,0,0,0,0,0,0,0,0,0,0,0,
0,0,-58,-2048,76,-8,-18,4,167,0,0,0,0,0,0,0,0,0,0,0,
0,0,-55,-2050,87,-12,-14,7,181,0,0,0,0,0,0,0,0,0,0,0,
0,0,-57,-2050,80,-8,-16,6,173,0,0,0,0,0,0,0,0,0,0,0,
0,0,-59,-2042,75,-7,-21,5,170,0,0,0,0,0,0,0,0,0,0,0,
0,0,-60,-2051,75,-8,-20,2,156,0,0,0,0,0,0,0,0,0,0,0,
0,0,-58,-2050,86,-5,-18,5,178,0,0,0,0,0,0,0,0,0,0,0,
0,0,-56,-2040,83,-10,-18,7,185,0,0,0,0,0,0,0,0,0,0,0,
0,0,-59,-2047,79,-12,-18,2,164,0,0,0,0,0,0,0,0,0,0,0,
0,0,-58,-2047,75,-5,-16,4,172,0,0,0,0,0,0,0,0,0,0,0,
0,0,-58,-2047,75,-5,-16,4,172,0,0,0,0,0,0,0,0,0,0,0,
0,0,-57,-2055,82,-9,-17,7,169,0,0,0,0,0,0,0,0,0,0,0,
0,0,-54,-2046,81,-9,-17,5,179,0,0,0,0,0,0,0,0,0,0,0,
0,0,-59,-2049,79,-9,-17,5,168,0,0,0,0,0,0,0,0,0,0,0,
0,0,-59,-2049,79,-9,-17,5,168,0,0,0,0,0,0,0,0,0,0,0,
0,0,-63,-2053,78,-7,-18,6,161,0,0,0,0,0,0,0,0,0,0,0,
0,0,-53,-2049,76,-9,-16,2,169,0,0,0,0,0,0,0,0,0,0,0,
0,0,-57,-2051,78,-7,-20,3,164,0,0,0,0,0,0,0,0,0,0,0,
0,0,-55,-2043,79,-8,-19,8,181,0,0,0,0,0,0,0,0,0,0,0,
0,0,-63,-2051,73,-6,-18,7,160,0,0,0,0,0,0,0,0,0,0,0,
0,0,-63,-2051,73,-10,-19,5,153,0,0,0,0,0,0,0,0,0,0,0,
0,0,-61,-2057,83,-8,-18,7,164,0,0,0,0,0,0,0,0,0,0,0,
0,0,-63,-2053,81,-8,-17,4,162,0,0,0,0,0,0,0,0,0,0,0,
0,0,-60,-2050,76,-4,-20,6,166,0,0,0,0,0,0,0,0,0,0,0,
0,0,-60,-2050,75,-8,-18,6,163,0,0,0,0,0,0,0,0,0,0,0,
0,0,-55,-2042,78,-11,-19,6,176,0,0,0,0,0,0,0,0,0,0,0,
0,0,-56,-2044,76,-6,-19,8,178,0,0,0,0,0,0,0,0,0,0,0,
0,0,-62,-2049,77,-6,-17,5,166,0,0,0,0,0,0,0,0,0,0,0,
0,0,-52,-2052,79,-8,-23,8,170,0,0,0,0,0,0,0,0,0,0,0,
0,0,-52,-2052,79,-8,-23,8,170,0,0,0,0,0,0,0,0,0,0,0,
0,0,-57,-2041,76,-5,-19,5,178,0,0,0,0,0,0,0,0,0,0,0,
0,0,-62,-2048,74,-8,-17,3,161,0,0,0,0,0,0,0,0,0,0,0,
0,0,-60,-2053,77,-7,-17,6,164,0,0,0,0,0,0,0,0,0,0,0,
0,0,-62,-2054,72,-9,-17,4,152,0,0,0,0,0,0,0,0,0,0,0,
0,0,-54,-2051,73,-7,-20,8,167,0,0,0,0,0,0,0,0,0,0,0,
0,0,-58,-2056,88,-6,-19,2,169,0,0,0,0,0,0,0,0,0,0,0,
0,0,-57,-2052,78,-7,-19,7,168,0,0,0,0,0,0,0,0,0,0,0,
0,0,-55,-2048,83,-11,-17,5,176,0,0,0,0,0,0,0,0,0,0,0,
0,0,-50,-2043,78,-10,-19,5,180,0,0,0,0,0,0,0,0,0,0,0,
0,0,-53,-2050,78,-9,-14,4,174,0,0,0,0,0,0,0,0,0,0,0,
0,0,-54,-2052,76,-10,-19,5,164,0,0,0,0,0,0,0,0,0,0,0,
0,0,-55,-2045,84,-10,-18,7,182,0,0,0,0,0,0,0,0,0,0,0,
0,0,-62,-2045,80,-7,-20,2,167,0,0,0,0,0,0,0,0,0,0,0,
0,0,-51,-2052,71,-7,-20,8,167,0,0,0,0,0,0,0,0,0,0,0,
0,0,-55,-2052,77,-8,-19,5,166,0,0,0,0,0,0,0,0,0,0,0,
0,0,-56,-2054,75,-6,-20,6,163,0,0,0,0,0,0,0,0,0,0,0,
0,0,-64,-2047,77,-9,-19,7,164,0,0,0,0,0,0,0,0,0,0,0,
0,0,-57,-2045,79,-7,-20,5,174,0,0,0,0,0,0,0,0,0,0,0,
0,0,-56,-2051,85,-8,-17,2,173,0,0,0,0,0,0,0,0,0,0,0,
0,0,-57,-2045,78,-6,-20,5,174,0,0,0,0,0,0,0,0,0,0,0,
0,0,-55,-2051,75,-7,-19,5,166,0,0,0,0,0,0,0,0,0,0,0,
0,0,-64,-2054,79,-11,-17,3,154,0,0,0,0,0,0,0,0,0,0,0,
0,0,-57,-2055,77,-7,-18,6,164,0,0,0,0,0,0,0,0,0,0,0,
0,0,-56,-2044,79,-8,-18,5,177,0,0,0,0,0,0,0,0,0,0,0,
0,0,-59,-2049,79,-7,-20,7,169,0,0,0,0,0,0,0,0,0,0,0,
0,0,-60,-2049,82,-8,-18,4,169,0,0,0,0,0,0,0,0,0,0,0,
0,0,-59,-2052,82,-5,-17,7,174,0,0,0,0,0,0,0,0,0,0,0,
0,0,-58,-2052,68,-7,-21,4,152,0,0,0,0,0,0,0,0,0,0,0,
0,0,-64,-2045,79,-9,-15,6,171,0,0,0,0,0,0,0,0,0,0,0,
0,0,-60,-2054,72,-7,-18,4,155,0,0,0,0,0,0,0,0,0,0,0,
0,0,-46,-2047,82,-8,-23,3,180,0,0,0,0,0,0,0,0,0,0,0,
0,0,-53,-2054,84,-9,-18,5,173,0,0,0,0,0,0,0,0,0,0,0,
0,0,-65,-2046,74,-4,-20,1,159,0,0,0,0,0,0,0,0,0,0,0,
0,0,-58,-2049,77,-6,-20,6,168,0,0,0,0,0,0,0,0,0,0,0,
0,0,-57,-2054,79,-10,-18,5,163,0,0,0,0,0,0,0,0,0,0,0,
0,0,-53,-2049,84,-6,-18,6,182,0,0,0,0,0,0,0,0,0,0,0,
0,0,-61,-2047,83,-7,-18,6,175,0,0,0,0,0,0,0,0,0,0,0,
0,0,-55,-2053,75,-11,-18,10,166,0,0,0,0,0,0,0,0,0,0,0,
0,0,-64,-2052,82,-10,-16,3,161,0,0,0,0,0,0,0,0,0,0,0,
0,0,-54,-2048,79,-6,-16,7,181,0,0,0,0,0,0,0,0,0,0,0,
0,0,-58,-2051,77,-8,-19,4,163,0,0,0,0,0,0,0,0,0,0,0,
0,0,-63,-2055,76,-5,-16,5,160,0,0,0,0,0,0,0,0,0,0,0,
0,0,-57,-2049,80,-10,-20,2,164,0,0,0,0,0,0,0,0,0,0,0,
0,0,-52,-2055,80,-9,-17,2,167,0,0,0,0,0,0,0,0,0,0,0,
0,0,-54,-2050,78,-10,-18,4,168,0,0,0,0,0,0,0,0,0,0,0,
0,0,-55,-2051,81,-10,-15,9,177,0,0,0,0,0,0,0,0,0,0,0,
0,0,-55,-2044,77,-8,-16,4,177,0,0,0,0,0,0,0,0,0,0,0,
0,0,-55,-2052,79,-5,-17,3,171,0,0,0,0,0,0,0,0,0,0,0,
0,0,-58,-2042,79,-6,-14,4,182,0,0,0,0,0,0,0,0,0,0,0,
0,0,-63,-2049,76,-8,-19,5,160,0,0,0,0,0,0,0,0,0,0,0,
0,0,-54,-2044,75,-7,-19,5,175,0,0,0,0,0,0,0,0,0,0,0,
0,0,-59,-2050,75,-8,-20,4,160,0,0,0,0,0,0,0,0,0,0,0,
0,0,-50,-2053,75,-5,-16,5,174,0,0,0,0,0,0,0,0,0,0,0,
0,0,-62,-2052,81,-5,-16,9,173,0,0,0,0,0,0,0,0,0,0,0,
0,0,-61,-2052,79,-5,-16,4,167,0,0,0,0,0,0,0,0,0,0,0,
0,0,-55,-2058,79,-9,-19,4,160,0,0,0,0,0,0,0,0,0,0,0,
0,0,-55,-2042,73,-8,-18,2,171,0,0,0,0,0,0,0,0,0,0,0,
0,0,-60,-2047,77,-8,-18,9,172,0,0,0,0,0,0,0,0,0,0,0,
0,0,-55,-2043,79,-8,-18,4,178,0,0,0,0,0,0,0,0,0,0,0,
0,0,-56,-2052,84,-10,-17,5,172,0,0,0,0,0,0,0,0,0,0,0,
0,0,-58,-2041,79,-8,-17,6,180,0,0,0,0,0,0,0,0,0,0,0,
0,0,-57,-2047,81,-5,-16,7,182,0,0,0,0,0,0,0,0,0,0,0,
0,0,-58,-2047,77,-9,-18,6,170,0,0,0,0,0,0,0,0,0,0,0,
0,0,-61,-2052,84,-5,-15,3,172,0,0,0,0,0,0,0,0,0,0,0,
0,0,-52,-2049,75,-6,-18,5,173,0,0,0,0,0,0,0,0,0,0,0,
0,0,-59,-2048,81,-7,-14,5,177,0,0,0,0,0,0,0,0,0,0,0,
0,0,-60,-2053,74,-8,-16,4,159,0,0,0,0,0,0,0,0,0,0,0,
0,0,-56,-2045,77,-9,-20,4,170,0,0,0,0,0,0,0,0,0,0,0,
0,0,-55,-2048,84,-10,-20,6,176,0,0,0,0,0,0,0,0,0,0,0,
0,0,-57,-2048,79,-8,-19,3,169,0,0,0,0,0,0,0,0,0,0,0,
0,0,-56,-2057,70,-6,-18,6,157,0,0,0,0,0,0,0,0,0,0,0,
0,0,-56,-2042,82,-7,-21,4,179,0,0,0,0,0,0,0,0,0,0,0,
0,0,-59,-2048,83,-8,-18,6,175,0,0,0,0,0,0,0,0,0,0,0,
0,0,-58,-2048,77,-4,-19,7,174,0,0,0,0,0,0,0,0,0,0,0,
0,0,-60,-2053,79,-7,-21,6,162,0,0,0,0,0,0,0,0,0,0,0,
0,0,-57,-2042,77,-10,-20,4,171,0,0,0,0,0,0,0,0,0,0,0,
0,0,-57,-2049,81,-7,-21,8,173,0,0,0,0,0,0,0,0,0,0,0,
0,0,-63,-2046,81,-6,-19,5,171,0,0,0,0,0,0,0,0,0,0,0,
0,0,-58,-2052,76,-4,-19,6,167,0,0,0,0,0,0,0,0,0,0,0,
0,0,-59,-2053,78,-5,-19,7,167,0,0,0,0,0,0,0,0,0,0,0,
0,0,-62,-2046,80,-6,-18,6,173,0,0,0,0,0,0,0,0,0,0,0,
0,0,-59,-2051,82,-9,-18,8,171,0,0,0,0,0,0,0,0,0,0,0,
0,0,-59,-2048,78,-8,-16,2,168,0,0,0,0,0,0,0,0,0,0,0,
0,0,-62,-2057,75,-6,-18,8,158,0,0,0,0,0,0,0,0,0,0,0,
0,0,-57,-2048,75,-3,-17,8,177,0,0,0,0,0,0,0,0,0,0,0,
0,0,-58,-2049,80,-8,-20,3,166,0,0,0,0,0,0,0,0,0,0,0,
0,0,-58,-2048,81,-5,-19,3,173,0,0,0,0,0,0,0,0,0,0,0,
0,0,-59,-2042,79,-6,-21,8,178,0,0,0,0,0,0,0,0,0,0,0,
0,0,-56,-2053,79,-6,-19,6,169,0,0,0,0,0,0,0,0,0,0,0,
0,0,-53,-2060,74,-5,-15,6,165,0,0,0,0,0,0,0,0,0,0,0,
0,0,-53,-2055,79,-8,-19,6,168,0,0,0,0,0,0,0,0,0,0,0,
0,0,-59,-2048,88,-8,-15,5,182,0,0,0,0,0,0,0,0,0,0,0,
0,0,-59,-2048,88,-8,-15,5,182,0,0,0,0,0,0,0,0,0,0,0,
0,0,-58,-2050,77,-8,-17,4,166,0,0,0,0,0,0,0,0,0,0,0,
0,0,-62,-2052,75,-7,-20,8,160,0,0,0,0,0,0,0,0,0,0,0,
0,0,-56,-2054,82,-6,-20,7,171,0,0,0,0,0,0,0,0,0,0,0,
0,0,-56,-2054,82,-10,-18,4,166,0,0,0,0,0,0,0,0,0,0,0,
0,0,-55,-2051,80,-9,-16,5,172,0,0,0,0,0,0,0,0,0,0,0,
0,0,-62,-2048,76,-8,-15,3,165,0,0,0,0,0,0,0,0,0,0,0,
0,0,-51,-2045,81,-8,-16,5,185,0,0,0,0,0,0,0,0,0,0,0,
0,0,-51,-2045,81,-5,-16,6,189,0,0,0,0,0,0,0,0,0,0,0,
0,0,-58,-2048,76,-8,-20,8,169,0,0,0,0,0,0,0,0,0,0,0,
0,0,-60,-2050,82,-7,-18,2,167,0,0,0,0,0,0,0,0,0,0,0,
0,0,-51,-2051,78,-4,-16,5,179,0,0,0,0,0,0,0,0,0,0,0,
0,0,-51,-2051,76,-7,-19,2,168,0,0,0,0,0,0,0,0,0,0,0,
0,0,-57,-2050,75,-8,-16,7,169,0,0,0,0,0,0,0,0,0,0,0,
0,0,-54,-2053,80,-6,-18,5,172,0,0,0,0,0,0,0,0,0,0,0,
0,0,-63,-2051,85,-9,-19,6,167,0,0,0,0,0,0,0,0,0,0,0,
0,0,-60,-2046,82,-7,-22,4,170,0,0,0,0,0,0,0,0,0,0,0,
0,0,-51,-2042,74,-7,-18,2,177,0,0,0,0,0,0,0,0,0,0,0,
0,0,-55,-2058,83,-11,-19,5,163,0,0,0,0,0,0,0,0,0,0,0,
0,0,-54,-2047,80,-7,-20,8,179,0,0,0,0,0,0,0,0,0,0,0,
0,0,-59,-2045,80,-9,-16,5,175,0,0,0,0,0,0,0,0,0,0,0,
0,0,-58,-2044,73,-7,-20,6,169,0,0,0,0,0,0,0,0,0,0,0,
0,0,-57,-2058,79,-9,-17,9,165,0,0,0,0,0,0,0,0,0,0,0,
0,0,-62,-2049,75,-9,-17,3,159,0,0,0,0,0,0,0,0,0,0,0,
0,0,-54,-2055,78,-5,-20,5,167,0,0,0,0,0,0,0,0,0,0,0,
0,0,-65,-2055,74,-10,-21,3,144,0,0,0,0,0,0,0,0,0,0,0,
0,0,-57,-2051,84,-11,-21,8,170,0,0,0,0,0,0,0,0,0,0,0,
0,0,-63,-2047,72,-7,-15,6,165,0,0,0,0,0,0,0,0,0,0,0,
0,0,-61,-2056,81,-6,-18,7,165,0,0,0,0,0,0,0,0,0,0,0,
0,0,-52,-2040,72,-9,-20,5,175,0,0,0,0,0,0,0,0,0,0,0,
0,0,-55,-2050,78,-10,-17,3,167,0,0,0,0,0,0,0,0,0,0,0,
0,0,-60,-2048,80,-6,-18,5,172,0,0,0,0,0,0,0,0,0,0,0,
0,0,-59,-2044,80,-6,-17,3,176,0,0,0,0,0,0,0,0,0,0,0,
0,0,-54,-2048,75,-6,-18,6,174,0,0,0,0,0,0,0,0,0,0,0,
0,0,-54,-2045,78,-9,-17,6,178,0,0,0,0,0,0,0,0,0,0,0,
0,0,-63,-2051,76,-9,-17,5,159,0,0,0,0,0,0,0,0,0,0,0,
0,0,-63,-2047,79,-4,-20,3,167,0,0,0,0,0,0,0,0,0,0,0,
0,0,-49,-2044,78,-6,-20,4,182,0,0,0,0,0,0,0,0,0,0,0,
0,0,-52,-2047,86,-8,-19,5,184,0,0,0,0,0,0,0,0,0,0,0,
0,0,-57,-2048,83,-5,-21,5,176,0,0,0,0,0,0,0,0,0,0,0,
0,0,-58,-2050,82,-3,-19,7,177,0,0,0,0,0,0,0,0,0,0,0,
0,0,-56,-2047,76,-8,-16,4,172,0,0,0,0,0,0,0,0,0,0,0,
0,0,-61,-2052,87,-7,-19,5,171,0,0,0,0,0,0,0,0,0,0,0,
0,0,-54,-2048,82,-7,-20,4,176,0,0,0,0,0,0,0,0,0,0,0,
0,0,-55,-2046,79,-12,-18,7,174,0,0,0,0,0,0,0,0,0,0,0,
0,0,-56,-2040,79,-5,-16,6,187,0,0,0,0,0,0,0,0,0,0,0,
0,0,-61,-2046,79,-7,-18,3,169,0,0,0,0,0,0,0,0,0,0,0,
0,0,-56,-2045,75,-9,-17,1,168,0,0,0,0,0,0,0,0,0,0,0,
0,0,-57,-2051,79,-6,-18,5,170,0,0,0,0,0,0,0,0,0,0,0,
0,0,-57,-2053,81,-7,-18,6,170,0,0,0,0,0,0,0,0,0,0,0,
0,0,-61,-2049,81,-5,-16,6,174,0,0,0,0,0,0,0,0,0,0,0,
0,0,-51,-2048,85,-11,-16,7,185,0,0,0,0,0,0,0,0,0,0,0,
0,0,-58,-2044,83,-8,-17,7,182,0,0,0,0,0,0,0,0,0,0,0,
0,0,-53,-2058,84,-8,-20,3,166,0,0,0,0,0,0,0,0,0,0,0,
0,0,-66,-2048,76,-7,-17,5,162,0,0,0,0,0,0,0,0,0,0,0,
0,0,-59,-2047,77,-9,-17,1,165,0,0,0,0,0,0,0,0,0,0,0,
0,0,-56,-2048,82,-7,-17,5,178,0,0,0,0,0,0,0,0,0,0,0,
0,0,-58,-2048,82,-6,-21,7,175,0,0,0,0,0,0,0,0,0,0,0,
0,0,-59,-2048,79,-6,-19,9,175,0,0,0,0,0,0,0,0,0,0,0,
0,0,-64,-2048,77,-7,-19,4,162,0,0,0,0,0,0,0,0,0,0,0,
0,0,-60,-2045,85,-10,-18,5,176,0,0,0,0,0,0,0,0,0,0,0,
0,0,-61,-2055,79,-7,-18,6,162,0,0,0,0,0,0,0,0,0,0,0,
0,0,-57,-2046,81,-6,-16,7,182,0,0,0,0,0,0,0,0,0,0,0,
0,0,-60,-2047,85,-8,-20,5,174,0,0,0,0,0,0,0,0,0,0,0,
0,0,-63,-2045,83,-9,-19,1,167,0,0,0,0,0,0,0,0,0,0,0,
0,0,-54,-2040,78,-6,-22,7,182,0,0,0,0,0,0,0,0,0,0,0,
0,0,-64,-2050,73,-7,-17,8,161,0,0,0,0,0,0,0,0,0,0,0,
0,0,-54,-2051,78,-7,-17,5,172,0,0,0,0,0,0,0,0,0,0,0,
0,0,-53,-2051,74,-9,-19,7,167,0,0,0,0,0,0,0,0,0,0,0,
0,0,-50,-2054,73,-6,-16,7,172,0,0,0,0,0,0,0,0,0,0,0,
0,0,-60,-2046,75,-9,-18,6,167,0,0,0,0,0,0,0,0,0,0,0,
0,0,-54,-2048,83,-8,-17,5,180,0,0,0,0,0,0,0,0,0,0,0,
0,0,-57,-2048,79,-7,-21,5,170,0,0,0,0,0,0,0,0,0,0,0,
0,0,-60,-2050,82,-9,-21,6,166,0,0,0,0,0,0,0,0,0,0,0,
0,0,-59,-2050,81,-7,-22,6,167,0,0,0,0,0,0,0,0,0,0,0,
0,0,-60,-2051,77,-7,-21,6,162,0,0,0,0,0,0,0,0,0,0,0,
0,0,-61,-2047,83,-7,-17,4,174,0,0,0,0,0,0,0,0,0,0,0,
0,0,-58,-2051,80,-10,-16,3,166,0,0,0,0,0,0,0,0,0,0,0,
0,0,-56,-2052,77,-4,-19,5,169,0,0,0,0,0,0,0,0,0,0,0,
0,0,-50,-2055,77,-9,-20,6,167,0,0,0,0,0,0,0,0,0,0,0,
0,0,-56,-2050,84,-10,-17,7,176,0,0,0,0,0,0,0,0,0,0,0,
0,0,-62,-2050,75,-9,-15,3,160,0,0,0,0,0,0,0,0,0,0,0,
0,0,-60,-2052,71,-10,-21,4,150,0,0,0,0,0,0,0,0,0,0,0,
0,0,-60,-2051,81,-11,-17,6,166,0,0,0,0,0,0,0,0,0,0,0,
0,0,-61,-2050,75,-10,-17,6,161,0,0,0,0,0,0,0,0,0,0,0,
0,0,-53,-2052,79,-8,-17,3,170,0,0,0,0,0,0,0,0,0,0,0,
0,0,-60,-2049,85,-8,-19,5,172,0,0,0,0,0,0,0,0,0,0,0,
0,0,-55,-2045,76,-7,-19,6,175,0,0,0,0,0,0,0,0,0,0,0,
0,0,-59,-2046,78,-2,-18,5,177,0,0,0,0,0,0,0,0,0,0,0,
0,0,-61,-2050,82,-8,-19,3,165,0,0,0,0,0,0,0,0,0,0,0,
0,0,-60,-2050,80,-7,-18,6,169,0,0,0,0,0,0,0,0,0,0,0,
0,0,-49,-2055,75,-5,-18,7,173,0,0,0,0,0,0,0,0,0,0,0,
0,0,-60,-2052,74,-9,-20,6,157,0,0,0,0,0,0,0,0,0,0,0,
0,0,-60,-2046,85,-9,-17,4,176,0,0,0,0,0,0,0,0,0,0,0,
0,0,-55,-2049,78,-7,-19,8,174,0,0,0,0,0,0,0,0,0,0,0,
0,0,-56,-2048,75,-12,-20,6,164,0,0,0,0,0,0,0,0,0,0,0,
0,0,-57,-2049,80,-9,-16,3,170,0,0,0,0,0,0,0,0,0,0,0,
0,0,-62,-2048,82,-9,-14,2,170,0,0,0,0,0,0,0,0,0,0,0,
0,0,-57,-2048,76,-6,-16,6,174,0,0,0,0,0,0,0,0,0,0,0,
0,0,-57,-2048,81,-8,-18,6,175,0,0,0,0,0,0,0,0,0,0,0,
0,0,-59,-2047,80,-6,-20,2,169,0,0,0,0,0,0,0,0,0,0,0,
0,0,-59,-2054,84,-9,-21,6,165,0,0,0,0,0,0,0,0,0,0,0,
0,0,-58,-2042,82,-11,-19,3,174,0,0,0,0,0,0,0,0,0,0,0,
0,0,-58,-2046,85,-5,-19,5,181,0,0,0,0,0,0,0,0,0,0,0,
0,0,-57,-2052,75,-7,-17,7,167,0,0,0,0,0,0,0,0,0,0,0,
0,0,-64,-2042,78,-8,-16,7,174,0,0,0,0,0,0,0,0,0,0,0,
0,0,-64,-2042,78,-8,-16,7,174,0,0,0,0,0,0,0,0,0,0,0,
0,0,-54,-2051,78,-8,-15,4,172,0,0,0,0,0,0,0,0,0,0,0,
0,0,-51,-2049,85,-6,-17,6,186,0,0,0,0,0,0,0,0,0,0,0,
0,0,-56,-2049,76,-9,-15,8,173,0,0,0,0,0,0,0,0,0,0,0,
0,0,-66,-2053,80,-10,-17,4,156,0,0,0,0,0,0,0,0,0,0,0,
0,0,-53,-2048,83,-9,-21,9,180,0,0,0,0,0,0,0,0,0,0,0,
0,0,-53,-2048,83,-4,-19,5,183,0,0,0,0,0,0,0,0,0,0,0,
0,0,-63,-2051,88,-9,-18,6,171,0,0,0,0,0,0,0,0,0,0,0,
0,0,-58,-2048,79,-9,-19,7,171,0,0,0,0,0,0,0,0,0,0,0,
0,0,-52,-2051,78,-5,-22,7,173,0,0,0,0,0,0,0,0,0,0,0,
0,0,-52,-2051,78,-8,-19,6,172,0,0,0,0,0,0,0,0,0,0,0,
0,0,-56,-2044,75,-9,-18,7,174,0,0,0,0,0,0,0,0,0,0,0,
0,0,-56,-2050,81,-3,-17,5,178,0,0,0,0,0,0,0,0,0,0,0,
0,0,-58,-2052,81,-7,-18,4,168,0,0,0,0,0,0,0,0,0,0,0,
0,0,-60,-2054,82,-7,-19,8,168,0,0,0,0,0,0,0,0,0,0,0,
0,0,-58,-2055,83,-6,-17,9,174,0,0,0,0,0,0,0,0,0,0,0,
0,0,-59,-2051,72,-2,-19,6,165,0,0,0,0,0,0,0,0,0,0,0,
0,0,-58,-2050,74,-7,-19,5,163,0,0,0,0,0,0,0,0,0,0,0,
0,0,-61,-2047,77,-6,-19,3,166,0,0,0,0,0,0,0,0,0,0,0,
0,0,-58,-2056,80,-4,-19,9,170,0,0,0,0,0,0,0,0,0,0,0,
0,0,-60,-2048,82,-7,-18,6,174,0,0,0,0,0,0,0,0,0,0,0,
0,0,-56,-2049,76,-7,-18,3,167,0,0,0,0,0,0,0,0,0,0,0,
0,0,-60,-2051,83,-6,-22,5,167,0,0,0,0,0,0,0,0,0,0,0,
0,0,-59,-2049,77,-8,-20,5,164,0,0,0,0,0,0,0,0,0,0,0,
0,0,-57,-2053,80,-4,-18,6,172,0,0,0,0,0,0,0,0,0,0,0,
0,0,-59,-2044,79,-7,-17,5,176,0,0,0,0,0,0,0,0,0,0,0,
0,0,-57,-2046,79,-6,-17,7,179,0,0,0,0,0,0,0,0,0,0,0,
0,0,-62,-2048,86,-9,-18,3,171,0,0,0,0,0,0,0,0,0,0,0,
0,0,-52,-2049,81,-8,-19,6,177,0,0,0,0,0,0,0,0,0,0,0,
0,0,-53,-2039,68,-9,-20,3,169,0,0,0,0,0,0,0,0,0,0,0,
0,0,-54,-2047,74,-10,-17,5,170,0,0,0,0,0,0,0,0,0,0,0,
0,0,-52,-2045,83,-9,-17,7,186,0,0,0,0,0,0,0,0,0,0,0,
0,0,-62,-2052,79,-6,-19,3,161,0,0,0,0,0,0,0,0,0,0,0,
0,0,-63,-2045,81,-11,-18,7,170,0,0,0,0,0,0,0,0,0,0,0,
0,0,-59,-2048,75,-8,-19,6,166,0,0,0,0,0,0,0,0,0,0,0,
0,0,-55,-2044,78,-7,-16,6,181,0,0,0,0,0,0,0,0,0,0,0,
0,0,-62,-2045,82,-4,-19,5,176,0,0,0,0,0,0,0,0,0,0,0,
0,0,-56,-2050,78,-7,-18,5,170,0,0,0,0,0,0,0,0,0,0,0,
0,0,-56,-2051,80,-8,-18,8,173,0,0,0,0,0,0,0,0,0,0,0,
0,0,-58,-2051,73,-7,-20,8,163,0,0,0,0,0,0,0,0,0,0,0,
0,0,-60,-2055,78,-11,-18,6,158,0,0,0,0,0,0,0,0,0,0,0,
0,0,-58,-2057,73,-7,-19,7,157,0,0,0,0,0,0,0,0,0,0,0,
0,0,-55,-2052,66,-3,-20,6,160,0,0,0,0,0,0,0,0,0,0,0,
0,0,-61,-2047,80,-11,-17,2,165,0,0,0,0,0,0,0,0,0,0,0,
0,0,-55,-2051,83,-8,-20,5,172,0,0,0,0,0,0,0,0,0,0,0,
0,0,-61,-2048,75,-9,-20,5,161,0,0,0,0,0,0,0,0,0,0,0,
0,0,-58,-2053,84,-5,-19,8,175,0,0,0,0,0,0,0,0,0,0,0,
0,0,-64,-2050,79,-9,-18,3,159,0,0,0,0,0,0,0,0,0,0,0,
0,0,-60,-2046,77,-7,-17,4,170,0,0,0,0,0,0,0,0,0,0,0,
0,0,-52,-2046,76,-9,-21,4,171,0,0,0,0,0,0,0,0,0,0,0,
0,0,-55,-2050,85,-10,-19,5,174,0,0,0,0,0,0,0,0,0,0,0,
0,0,-65,-2045,82,-7,-17,7,174,0,0,0,0,0,0,0,0,0,0,0,
0,0,-61,-2044,83,-10,-18,7,176,0,0,0,0,0,0,0,0,0,0,0,
0,0,-50,-2048,83,-9,-22,7,180,0,0,0,0,0,0,0,0,0,0,0,
0,0,-62,-2047,68,-13,-20,5,150,0,0,0,0,0,0,0,0,0,0,0,
0,0,-58,-2050,79,-6,-17,7,173,0,0,0,0,0,0,0,0,0,0,0,
0,0,-61,-2057,76,-8,-18,6,156,0,0,0,0,0,0,0,0,0,0,0,
0,0,-62,-2053,76,-6,-20,7,160,0,0,0,0,0,0,0,0,0,0,0,
0,0,-58,-2053,78,-6,-17,4,166,0,0,0,0,0,0,0,0,0,0,0,
0,0,-59,-2050,83,-5,-14,4,177,0,0,0,0,0,0,0,0,0,0,0,
0,0,-55,-2048,79,-8,-20,7,174,0,0,0,0,0,0,0,0,0,0,0,
0,0,-61,-2052,86,-8,-16,4,171,0,0,0,0,0,0,0,0,0,0,0,
0,0,-62,-2052,77,-8,-17,5,161,0,0,0,0,0,0,0,0,0,0,0,
0,0,-57,-2049,82,-7,-19,5,173,0,0,0,0,0,0,0,0,0,0,0,
0,0,-65,-2042,78,-10,-20,3,163,0,0,0,0,0,0,0,0,0,0,0,
0,0,-59,-2050,77,-4,-17,8,173,0,0,0,0,0,0,0,0,0,0,0,
0,0,-55,-2052,77,-5,-17,6,172,0,0,0,0,0,0,0,0,0,0,0,
0,0,-61,-2047,80,-10,-19,3,165,0,0,0,0,0,0,0,0,0,0,0,
0,0,-61,-2049,76,-6,-19,4,163,0,0,0,0,0,0,0,0,0,0,0,
0,0,-70,-2047,80,-10,-18,6,160,0,0,0,0,0,0,0,0,0,0,0,
0,0,-55,-2049,78,-6,-19,7,174,0,0,0,0,0,0,0,0,0,0,0,
0,0,-64,-2047,77,-7,-18,4,164,0,0,0,0,0,0,0,0,0,0,0,
0,0,-54,-2053,82,-9,-18,6,172,0,0,0,0,0,0,0,0,0,0,0,
0,0,-63,-2046,69,-5,-16,6,164,0,0,0,0,0,0,0,0,0,0,0,
0,0,-53,-2048,78,-7,-19,8,178,0,0,0,0,0,0,0,0,0,0,0,
0,0,-57,-2047,79,-9,-18,5,172,0,0,0,0,0,0,0,0,0,0,0,
0,0,-55,-2057,76,-7,-21,8,162,0,0,0,0,0,0,0,0,0,0,0,
0,0,-63,-2054,71,-8,-19,5,150,0,0,0,0,0,0,0,0,0,0,0,
0,0,-55,-2052,74,-7,-21,3,160,0,0,0,0,0,0,0,0,0,0,0,
0,0,-59,-2043,82,-9,-20,4,174,0,0,0,0,0,0,0,0,0,0,0,
0,0,-53,-2044,83,-7,-18,7,187,0,0,0,0,0,0,0,0,0,0,0,
0,0,-56,-2054,78,-4,-19,8,171,0,0,0,0,0,0,0,0,0,0,0,
0,0,-62,-2052,77,-3,-20,3,161,0,0,0,0,0,0,0,0,0,0,0,
0,0,-54,-2051,74,-13,-19,4,159,0,0,0,0,0,0,0,0,0,0,0,
0,0,-61,-2056,82,-8,-17,8,166,0,0,0,0,0,0,0,0,0,0,0,
0,0,-56,-2043,79,-8,-16,3,178,0,0,0,0,0,0,0,0,0,0,0,
0,0,-55,-2046,78,-8,-20,4,172,0,0,0,0,0,0,0,0,0,0,0,
0,0,-63,-2050,72,-8,-17,6,158,0,0,0,0,0,0,0,0,0,0,0,
0,0,-57,-2052,80,-8,-17,4,168,0,0,0,0,0,0,0,0,0,0,0,
0,0,-54,-2052,73,-8,-17,4,164,0,0,0,0,0,0,0,0,0,0,0,
0,0,-58,-2045,75,-6,-17,3,171,0,0,0,0,0,0,0,0,0,0,0,
0,0,-67,-2051,85,-9,-18,1,159,0,0,0,0,0,0,0,0,0,0,0,
0,0,-58,-2052,77,-8,-19,7,165,0,0,0,0,0,0,0,0,0,0,0,
0,0,-52,-2043,83,-9,-18,2,182,0,0,0,0,0,0,0,0,0,0,0,
0,0,-59,-2043,75,-5,-19,3,171,0,0,0,0,0,0,0,0,0,0,0,
0,0,-54,-2047,85,-8,-18,7,184,0,0,0,0,0,0,0,0,0,0,0,
0,0,-59,-2047,80,-7,-18,6,174,0,0,0,0,0,0,0,0,0,0,0,
0,0,-59,-2056,81,-8,-18,6,164,0,0,0,0,0,0,0,0,0,0,0,
0,0,-62,-2054,77,-9,-20,4,154,0,0,0,0,0,0,0,0,0,0,0,
0,0,-58,-2052,82,-7,-17,8,174,0,0,0,0,0,0,0,0,0,0,0,
0,0,-58,-2049,79,-9,-18,4,167,0,0,0,0,0,0,0,0,0,0,0,
0,0,-59,-2049,75,-10,-18,7,164,0,0,0,0,0,0,0,0,0,0,0,
0,0,-52,-2056,82,-10,-18,7,171,0,0,0,0,0,0,0,0,0,0,0,
0,0,-58,-2046,82,-8,-19,5,175,0,0,0,0,0,0,0,0,0,0,0,
0,0,-58,-2053,76,-5,-17,5,166,0,0,0,0,0,0,0,0,0,0,0,
0,0,-57,-2047,79,-8,-18,4,172,0,0,0,0,0,0,0,0,0,0,0,
0,0,-54,-2052,85,-9,-16,6,178,0,0,0,0,0,0,0,0,0,0,0,
0,0,-57,-2045,76,-11,-19,6,169,0,0,0,0,0,0,0,0,0,0,0,
0,0,-61,-2047,80,-7,-17,4,171,0,0,0,0,0,0,0,0,0,0,0,
0,0,-61,-2047,80,-7,-17,4,171,0,0,0,0,0,0,0,0,0,0,0,
0,0,-54,-2051,82,-8,-18,6,175,0,0,0,0,0,0,0,0,0,0,0,
0,0,-58,-2045,84,-8,-19,8,181,0,0,0,0,0,0,0,0,0,0,0,
0,0,-60,-2039,85,-8,-16,5,186,0,0,0,0,0,0,0,0,0,0,0,
0,0,-60,-2039,85,-5,-19,5,186,0,0,0,0,0,0,0,0,0,0,0,
0,0,-61,-2051,87,-9,-19,4,169,0,0,0,0,0,0,0,0,0,0,0,
0,0,-54,-2058,74,-8,-15,5,162,0,0,0,0,0,0,0,0,0,0,0,
0,0,-51,-2049,82,-6,-20,3,177,0,0,0,0,0,0,0,0,0,0,0,
0,0,-57,-2045,84,-6,-17,6,184,0,0,0,0,0,0,0,0,0,0,0,
0,0,-57,-2046,75,-6,-22,7,170,0,0,0,0,0,0,0,0,0,0,0,
0,0,-57,-2046,75,-6,-18,6,173,0,0,0,0,0,0,0,0,0,0,0,
0,0,-62,-2053,85,-5,-19,9,173,0,0,0,0,0,0,0,0,0,0,0,
0,0,-54,-2049,77,-9,-18,6,171,0,0,0,0,0,0,0,0,0,0,0,
0,0,-53,-2050,82,-10,-18,7,176,0,0,0,0,0,0,0,0,0,0,0,
0,0,-58,-2043,74,-9,-19,8,172,0,0,0,0,0,0,0,0,0,0,0,
0,0,-63,-2042,77,-9,-21,2,163,0,0,0,0,0,0,0,0,0,0,0,
0,0,-50,-2056,84,-10,-18,4,172,0,0,0,0,0,0,0,0,0,0,0,
0,0,-59,-2046,77,-12,-19,7,167,0,0,0,0,0,0,0,0,0,0,0,
0,0,-57,-2052,75,-7,-22,6,161,0,0,0,0,0,0,0,0,0,0,0,
0,0,-60,-2046,76,-7,-17,5,170,0,0,0,0,0,0,0,0,0,0,0,
0,0,-61,-2051,77,-9,-19,7,162,0,0,0,0,0,0,0,0,0,0,0,
0,0,-54,-2045,83,-12,-21,9,179,0,0,0,0,0,0,0,0,0,0,0,
0,0,-56,-2049,81,-7,-21,7,173,0,0,0,0,0,0,0,0,0,0,0,
0,0,-61,-2051,83,-5,-16,7,175,0,0,0,0,0,0,0,0,0,0,0,
0,0,-59,-2054,80,-9,-18,8,166,0,0,0,0,0,0,0,0,0,0,0,
0,0,-56,-2049,75,-11,-18,5,164,0,0,0,0,0,0,0,0,0,0,0,
0,0,-57,-2047,78,-9,-20,5,169,0,0,0,0,0,0,0,0,0,0,0,
0,0,-56,-2048,85,-8,-19,5,178,0,0,0,0,0,0,0,0,0,0,0,
0,0,-56,-2048,82,-8,-22,4,171,0,0,0,0,0,0,0,0,0,0,0,
0,0,-61,-2048,75,-9,-19,3,160,0,0,0,0,0,0,0,0,0,0,0,
0,0,-50,-2048,83,-8,-18,6,184,0,0,0,0,0,0,0,0,0,0,0,
0,0,-52,-2056,81,-8,-17,7,173,0,0,0,0,0,0,0,0,0,0,0,
0,0,-55,-2055,77,-5,-20,6,166,0,0,0,0,0,0,0,0,0,0,0,
0,0,-61,-2049,86,-9,-17,2,170,0,0,0,0,0,0,0,0,0,0,0,
0,0,-57,-2056,77,-5,-15,6,168,0,0,0,0,0,0,0,0,0,0,0,
0,0,-56,-2049,74,-9,-19,3,162,0,0,0,0,0,0,0,0,0,0,0,
0,0,-63,-2054,75,-8,-19,5,154,0,0,0,0,0,0,0,0,0,0,0,
0,0,-59,-2049,76,-6,-20,4,164,0,0,0,0,0,0,0,0,0,0,0,
0,0,-61,-2043,80,-6,-16,8,181,0,0,0,0,0,0,0,0,0,0,0,
0,0,-51,-2051,77,-7,-21,7,172,0,0,0,0,0,0,0,0,0,0,0,
0,0,-52,-2047,86,-7,-17,5,187,0,0,0,0,0,0,0,0,0,0,0,
0,0,-60,-2049,75,-7,-17,8,168,0,0,0,0,0,0,0,0,0,0,0,
0,0,-55,-2045,74,-10,-18,6,171,0,0,0,0,0,0,0,0,0,0,0,
0,0,-58,-2052,80,-6,-16,7,173,0,0,0,0,0,0,0,0,0,0,0,
0,0,-58,-2047,73,-6,-16,8,173,0,0,0,0,0,0,0,0,0,0,0,
0,0,-52,-2050,86,-6,-22,7,181,0,0,0,0,0,0,0,0,0,0,0,
0,0,-58,-2051,82,-8,-18,5,170,0,0,0,0,0,0,0,0,0,0,0,
0,0,-58,-2054,81,-7,-19,6,167,0,0,0,0,0,0,0,0,0,0,0,
0,0,-56,-2051,82,-7,-15,6,177,0,0,0,0,0,0,0,0,0,0,0,
0,0,-62,-2049,84,-8,-18,6,171,0,0,0,0,0,0,0,0,0,0,0,
0,0,-56,-2051,77,-8,-19,8,169,0,0,0,0,0,0,0,0,0,0,0,
0,0,-51,-2056,79,-11,-17,2,164,0,0,0,0,0,0,0,0,0,0,0,
0,0,-59,-2050,78,-9,-16,5,167,0,0,0,0,0,0,0,0,0,0,0,
0,0,-57,-2048,83,-9,-19,3,172,0,0,0,0,0,0,0,0,0,0,0,
0,0,-61,-2054,80,-11,-18,3,157,0,0,0,0,0,0,0,0,0,0,0,
0,0,-58,-2052,83,-8,-22,5,166,0,0,0,0,0,0,0,0,0,0,0,
0,0,-59,-2051,78,-9,-22,9,164,0,0,0,0,0,0,0,0,0,0,0,
0,0,-56,-2047,81,-9,-16,5,177,0,0,0,0,0,0,0,0,0,0,0,
0,0,-61,-2058,81,-5,-19,7,163,0,0,0,0,0,0,0,0,0,0,0,
0,0,-57,-2045,72,-9,-16,4,168,0,0,0,0,0,0,0,0,0,0,0,
0,0,-51,-2049,86,-9,-18,3,180,0,0,0,0,0,0,0,0,0,0,0,
0,0,-53,-2046,79,-8,-16,3,178,0,0,0,0,0,0,0,0,0,0,0,
0,0,-63,-2047,71,-7,-20,4,157,0,0,0,0,0,0,0,0,0,0,0,
0,0,-63,-2052,84,-5,-17,7,172,0,0,0,0,0,0,0,0,0,0,0,
0,0,-59,-2048,81,-6,-19,6,174,0,0,0,0,0,0,0,0,0,0,0,
0,0,-57,-2048,72,-6,-19,5,166,0,0,0,0,0,0,0,0,0,0,0,
0,0,-52,-2056,79,-11,-16,3,165,0,0,0,0,0,0,0,0,0,0,0,
0,0,-60,-2048,80,-9,-23,7,166,0,0,0,0,0,0,0,0,0,0,0,
0,0,-59,-2047,80,-8,-18,7,174,0,0,0,0,0,0,0,0,0,0,0,
0,0,-55,-2052,73,-9,-18,6,163,0,0,0,0,0,0,0,0,0,0,0,
0,0,-56,-2053,83,-9,-15,6,174,0,0,0,0,0,0,0,0,0,0,0,
0,0,-56,-2052,73,-8,-17,8,166,0,0,0,0,0,0,0,0,0,0,0,
0,0,-60,-2054,83,-9,-13,4,169,0,0,0,0,0,0,0,0,0,0,0,
0,0,-63,-2058,81,-7,-20,4,155,0,0,0,0,0,0,0,0,0,0,0,
0,0,-59,-2058,79,-7,-19,7,161,0,0,0,0,0,0,0,0,0,0,0,
0,0,-61,-2046,78,-9,-18,2,165,0,0,0,0,0,0,0,0,0,0,0,
0,0,-58,-2058,83,-7,-18,3,163,0,0,0,0,0,0,0,0,0,0,0,
0,0,-54,-2052,79,-10,-19,4,166,0,0,0,0,0,0,0,0,0,0,0,
0,0,-60,-2053,72,-8,-18,2,153,0,0,0,0,0,0,0,0,0,0,0,
0,0,-55,-2046,80,-8,-19,3,174,0,0,0,0,0,0,0,0,0,0,0,
0,0,-59,-2043,83,-7,-21,4,176,0,0,0,0,0,0,0,0,0,0,0,
0,0,-57,-2049,80,-8,-17,6,173,0,0,0,0,0,0,0,0,0,0,0,
0,0,-60,-2048,80,-10,-20,6,167,0,0,0,0,0,0,0,0,0,0,0,
0,0,-56,-2044,79,-6,-17,6,181,0,0,0,0,0,0,0,0,0,0,0,
0,0,-58,-2048,77,-9,-21,3,163,0,0,0,0,0,0,0,0,0,0,0,
0,0,-50,-2048,73,-4,-17,8,181,0,0,0,0,0,0,0,0,0,0,0,
0,0,-50,-2053,84,-7,-19,6,179,0,0,0,0,0,0,0,0,0,0,0,
0,0,-59,-2050,81,-8,-19,8,171,0,0,0,0,0,0,0,0,0,0,0,
0,0,-59,-2049,78,-7,-19,8,170,0,0,0,0,0,0,0,0,0,0,0,
0,0,-63,-2046,74,-7,-18,5,164,0,0,0,0,0,0,0,0,0,0,0,
0,0,-58,-2050,79,-7,-20,7,169,0,0,0,0,0,0,0,0,0,0,0,
0,0,-53,-2053,81,-7,-20,8,174,0,0,0,0,0,0,0,0,0,0,0,
0,0,-60,-2053,78,-8,-19,4,160,0,0,0,0,0,0,0,0,0,0,0,
0,0,-63,-2053,78,-12,-17,7,158,0,0,0,0,0,0,0,0,0,0,0,
0,0,-57,-2046,84,-4,-16,10,190,0,0,0,0,0,0,0,0,0,0,0,
0,0,-50,-2051,77,-9,-20,3,168,0,0,0,0,0,0,0,0,0,0,0,
0,0,-55,-2044,79,-8,-17,2,176,0,0,0,0,0,0,0,0,0,0,0,
0,0,-60,-2047,77,-8,-19,7,169,0,0,0,0,0,0,0,0,0,0,0,
0,0,-56,-2051,75,-6,-17,7,170,0,0,0,0,0,0,0,0,0,0,0,
0,0,-57,-2048,84,-7,-18,3,176,0,0,0,0,0,0,0,0,0,0,0,
0,0,-61,-2049,81,-8,-20,2,163,0,0,0,0,0,0,0,0,0,0,0,
0,0,-57,-2053,81,-9,-19,2,163,0,0,0,0,0,0,0,0,0,0,0,
0,0,-64,-2049,85,-11,-18,2,163,0,0,0,0,0,0,0,0,0,0,0,
0,0,-60,-2052,74,-9,-16,2,157,0,0,0,0,0,0,0,0,0,0,0,
0,0,-55,-2045,85,-5,-17,5,187,0,0,0,0,0,0,0,0,0,0,0,
0,0,-61,-2051,78,-9,-17,3,161,0,0,0,0,0,0,0,0,0,0,0,
0,0,-57,-2042,79,-8,-18,4,177,0,0,0,0,0,0,0,0,0,0,0,
0,0,-59,-2047,75,-5,-18,6,171,0,0,0,0,0,0,0,0,0,0,0,
0,0,-59,-2047,75,-5,-18,6,171,0,0,0,0,0,0,0,0,0,0,0,
0,0,-55,-2044,76,-7,-20,8,177,0,0,0,0,0,0,0,0,0,0,0,
0,0,-62,-2052,82,-9,-18,1,160,0,0,0,0,0,0,0,0,0,0,0,
0,0,-68,-2056,82,-8,-18,7,157,0,0,0,0,0,0,0,0,0,0,0,
0,0,-56,-2053,82,-5,-18,3,171,0,0,0,0,0,0,0,0,0,0,0,
0,0,-56,-2053,82,-7,-19,5,170,0,0,0,0,0,0,0,0,0,0,0,
0,0,-56,-2044,77,-7,-19,3,173,0,0,0,0,0,0,0,0,0,0,0,
0,0,-58,-2052,80,-5,-18,6,171,0,0,0,0,0,0,0,0,0,0,0,
0,0,-59,-2047,84,-8,-20,5,174,0,0,0,0,0,0,0,0,0,0,0,
0,0,-59,-2047,84,-6,-17,4,178,0,0,0,0,0,0,0,0,0,0,0,
0,0,-60,-2051,76,-9,-19,2,157,0,0,0,0,0,0,0,0,0,0,0,
0,0,-55,-2043,80,-7,-17,5,182,0,0,0,0,0,0,0,0,0,0,0,
0,0,-56,-2051,81,-11,-16,1,166,0,0,0,0,0,0,0,0,0,0,0,
0,0,-53,-2046,86,-8,-17,4,185,0,0,0,0,0,0,0,0,0,0,0,
0,0,-61,-2043,81,-7,-17,6,178,0,0,0,0,0,0,0,0,0,0,0,
0,0,-58,-2049,82,-8,-16,5,174,0,0,0,0,0,0,0,0,0,0,0,
0,0,-61,-2053,72,-7,-20,5,154,0,0,0,0,0,0,0,0,0,0,0,
0,0,-56,-2047,79,-8,-17,5,175,0,0,0,0,0,0,0,0,0,0,0,
0,0,-60,-2049,77,-9,-20,4,161,0,0,0,0,0,0,0,0,0,0,0,
0,0,-57,-2047,75,-3,-16,6,177,0,0,0,0,0,0,0,0,0,0,0,
0,0,-56,-2051,86,-8,-16,5,178,0,0,0,0,0,0,0,0,0,0,0,
0,0,-53,-2048,88,-11,-17,5,183,0,0,0,0,0,0,0,0,0,0,0,
0,0,-54,-2051,78,-11,-17,5,168,0,0,0,0,0,0,0,0,0,0,0,
0,0,-59,-2049,76,-9,-19,5,163,0,0,0,0,0,0,0,0,0,0,0,
0,0,-63,-2044,78,-9,-19,8,170,0,0,0,0,0,0,0,0,0,0,0,
0,0,-56,-2054,85,-6,-19,5,173,0,0,0,0,0,0,0,0,0,0,0,
0,0,-56,-2045,82,-8,-18,4,178,0,0,0,0,0,0,0,0,0,0,0,
0,0,-62,-2050,77,-11,-18,6,160,0,0,0,0,0,0,0,0,0,0,0,
0,0,-60,-2052,78,-9,-19,3,159,0,0,0,0,0,0,0,0,0,0,0,
0,0,-52,-2045,79,-6,-18,6,183,0,0,0,0,0,0,0,0,0,0,0,
0,0,-52,-2044,75,-10,-17,3,174,0,0,0,0,0,0,0,0,0,0,0,
0,0,-55,-2049,87,-7,-23,6,177,0,0,0,0,0,0,0,0,0,0,0,
0,0,-58,-2047,82,-8,-17,5,176,0,0,0,0,0,0,0,0,0,0,0,
0,0,-59,-2052,74,-8,-21,2,154,0,0,0,0,0,0,0,0,0,0,0,
0,0,-52,-2049,78,-10,-18,4,171,0,0,0,0,0,0,0,0,0,0,0,
0,0,-61,-2048,78,-6,-20,7,169,0,0,0,0,0,0,0,0,0,0,0,
0,0,-54,-2047,83,-8,-19,5,179,0,0,0,0,0,0,0,0,0,0,0,
0,0,-58,-2049,81,-7,-18,8,175,0,0,0,0,0,0,0,0,0,0,0,
0,0,-60,-2045,73,-7,-18,4,166,0,0,0,0,0,0,0,0,0,0,0,
0,0,-54,-2047,78,-4,-20,6,178,0,0,0,0,0,0,0,0,0,0,0,
0,0,-54,-2051,80,-4,-18,8,179,0,0,0,0,0,0,0,0,0,0,0,
0,0,-55,-2049,81,-8,-16,3,174,0,0,0,0,0,0,0,0,0,0,0,
0,0,-57,-2047,78,-8,-15,6,176,0,0,0,0,0,0,0,0,0,0,0,
0,0,-56,-2043,80,-9,-19,8,180,0,0,0,0,0,0,0,0,0,0,0,
0,0,-61,-2044,85,-7,-19,5,178,0,0,0,0,0,0,0,0,0,0,0,
0,0,-57,-2047,78,-7,-16,5,175,0,0,0,0,0,0,0,0,0,0,0,
0,0,-57,-2042,80,-7,-17,7,183,0,0,0,0,0,0,0,0,0,0,0,
0,0,-56,-2051,76,-8,-19,4,164,0,0,0,0,0,0,0,0,0,0,0,
0,0,-62,-2050,81,-8,-17,5,167,0,0,0,0,0,0,0,0,0,0,0,
0,0,-66,-2055,82,-7,-17,4,159,0,0,0,0,0,0,0,0,0,0,0,
0,0,-55,-2051,80,-5,-20,6,173,0,0,0,0,0,0,0,0,0,0,0,
0,0,-56,-2045,81,-5,-18,11,187,0,0,0,0,0,0,0,0,0,0,0,
0,0,-62,-2051,80,-6,-17,6,168,0,0,0,0,0,0,0,0,0,0,0,
0,0,-62,-2039,78,-8,-17,5,176,0,0,0,0,0,0,0,0,0,0,0,
0,0,-55,-2051,80,-7,-17,5,173,0,0,0,0,0,0,0,0,0,0,0,
0,0,-57,-2048,75,-9,-19,4,165,0,0,0,0,0,0,0,0,0,0,0,
0,0,-60,-2049,84,-7,-19,6,173,0,0,0,0,0,0,0,0,0,0,0,
0,0,-57,-2049,80,-9,-20,5,168,0,0,0,0,0,0,0,0,0,0,0,
0,0,-57,-2045,87,-6,-18,6,186,0,0,0,0,0,0,0,0,0,0,0,
0,0,-54,-2052,77,-8,-17,5,169,0,0,0,0,0,0,0,0,0,0,0,
0,0,-55,-2050,82,-9,-17,5,174,0,0,0,0,0,0,0,0,0,0,0,
0,0,-47,-2045,80,-6,-19,4,186,0,0,0,0,0,0,0,0,0,0,0,
0,0,-56,-2045,76,-7,-16,6,177,0,0,0,0,0,0,0,0,0,0,0,
0,0,-57,-2046,79,-7,-21,5,172,0,0,0,0,0,0,0,0,0,0,0,
0,0,-56,-2045,78,-5,-16,3,178,0,0,0,0,0,0,0,0,0,0,0,
0,0,-63,-2047,80,-8,-19,3,165,0,0,0,0,0,0,0,0,0,0,0,
0,0,-58,-2044,77,-9,-16,7,176,0,0,0,0,0,0,0,0,0,0,0,
0,0,-58,-2053,74,-6,-21,7,161,0,0,0,0,0,0,0,0,0,0,0,
0,0,-57,-2047,83,-8,-19,3,174,0,0,0,0,0,0,0,0,0,0,0,
0,0,-56,-2051,82,-6,-16,4,175,0,0,0,0,0,0,0,0,0,0,0,
0,0,-62,-2058,85,-8,-18,6,163,0,0,0,0,0,0,0,0,0,0,0,
0,0,-60,-2040,78,-8,-19,4,174,0,0,0,0,0,0,0,0,0,0,0,
0,0,-62,-2049,80,-8,-19,5,165,0,0,0,0,0,0,0,0,0,0,0,
0,0,-57,-2050,82,-9,-16,7,175,0,0,0,0,0,0,0,0,0,0,0,
0,0,-56,-2051,80,-8,-20,10,173,0,0,0,0,0,0,0,0,0,0,0,
0,0,-62,-2048,74,-11,-20,2,154,0,0,0,0,0,0,0,0,0,0,0,
0,0,-58,-2045,79,-7,-15,3,176,0,0,0,0,0,0,0,0,0,0,0,
0,0,-58,-2051,75,-9,-18,5,162,0,0,0,0,0,0,0,0,0,0,0,
0,0,-56,-2049,76,-7,-17,6,171,0,0,0,0,0,0,0,0,0,0,0,
0,0,-61,-2048,86,-8,-17,3,174,0,0,0,0,0,0,0,0,0,0,0,
0,0,-58,-2053,79,-7,-18,7,168,0,0,0,0,0,0,0,0,0,0,0,
0,0,-66,-2049,84,-13,-20,5,159,0,0,0,0,0,0,0,0,0,0,0,
0,0,-58,-2045,83,-4,-17,9,187,0,0,0,0,0,0,0,0,0,0,0,
0,0,-57,-2046,81,-11,-19,4,171,0,0,0,0,0,0,0,0,0,0,0,
0,0,-61,-2048,78,-7,-19,2,164,0,0,0,0,0,0,0,0,0,0,0,
0,0,-52,-2057,80,-6,-19,7,171,0,0,0,0,0,0,0,0,0,0,0,
0,0,-55,-2045,78,-7,-19,6,177,0,0,0,0,0,0,0,0,0,0,0,
0,0,-60,-2055,77,-8,-17,5,160,0,0,0,0,0,0,0,0,0,0,0,
0,0,-53,-2041,73,-5,-18,5,180,0,0,0,0,0,0,0,0,0,0,0,
0,0,-56,-2053,79,-10,-15,4,167,0,0,0,0,0,0,0,0,0,0,0,
0,0,-57,-2048,84,-2,-18,3,181,0,0,0,0,0,0,0,0,0,0,0,
0,0,-56,-2053,75,-8,-15,3,164,0,0,0,0,0,0,0,0,0,0,0,
0,0,-58,-2041,76,-8,-19,6,175,0,0,0,0,0,0,0,0,0,0,0,
0,0,-62,-2054,77,-10,-17,2,154,0,0,0,0,0,0,0,0,0,0,0,
0,0,-56,-2052,79,-7,-18,6,170,0,0,0,0,0,0,0,0,0,0,0,
0,0,-60,-2050,78,-8,-19,4,163,0,0,0,0,0,0,0,0,0,0,0,
0,0,-55,-2057,79,-5,-18,3,165,0,0,0,0,0,0,0,0,0,0,0,
0,0,-53,-2048,77,-8,-20,7,174,0,0,0,0,0,0,0,0,0,0,0,
0,0,-64,-2042,87,-8,-18,4,178,0,0,0,0,0,0,0,0,0,0,0,
0,0,-52,-2049,81,-11,-18,4,173,0,0,0,0,0,0,0,0,0,0,0,
0,0,-53,-2055,75,-6,-15,8,172,0,0,0,0,0,0,0,0,0,0,0,
0,0,-61,-2059,81,-8,-19,3,155,0,0,0,0,0,0,0,0,0,0,0,
0,0,-57,-2050,81,-9,-17,2,168,0,0,0,0,0,0,0,0,0,0,0,
0,0,-62,-2048,73,-7,-17,2,160,0,0,0,0,0,0,0,0,0,0,0,
0,0,-57,-2044,79,-8,-18,4,175,0,0,0,0,0,0,0,0,0,0,0,
0,0,-57,-2051,75,-10,-17,1,159,0,0,0,0,0,0,0,0,0,0,0,
0,0,-57,-2058,73,-7,-16,3,156,0,0,0,0,0,0,0,0,0,0,0,
0,0,-54,-2044,86,-7,-19,6,187,0,0,0,0,0,0,0,0,0,0,0,
0,0,-61,-2046,89,-9,-16,5,181,0,0,0,0,0,0,0,0,0,0,0,
0,0,-53,-2050,79,-9,-19,2,168,0,0,0,0,0,0,0,0,0,0,0,
0,0,-53,-2050,79,-9,-19,2,168,0,0,0,0,0,0,0,0,0,0,0,
0,0,-54,-2052,85,-6,-19,4,176,0,0,0,0,0,0,0,0,0,0,0,
0,0,-60,-2048,77,-7,-19,5,167,0,0,0,0,0,0,0,0,0,0,0,
0,0,-64,-2047,80,-9,-17,6,168,0,0,0,0,0,0,0,0,0,0,0,
0,0,-58,-2050,81,-7,-19,7,172,0,0,0,0,0,0,0,0,0,0,0,
0,0,-58,-2050,81,-4,-19,7,175,0,0,0,0,0,0,0,0,0,0,0,
0,0,-57,-2051,78,-8,-18,5,167,0,0,0,0,0,0,0,0,0,0,0,
0,0,-50,-2047,78,-9,-18,4,177,0,0,0,0,0,0,0,0,0,0,0,
0,0,-63,-2050,77,-7,-20,6,161,0,0,0,0,0,0,0,0,0,0,0,
0,0,-63,-2050,77,-3,-17,3,165,0,0,0,0,0,0,0,0,0,0,0,
0,0,-54,-2047,79,-7,-18,7,179,0,0,0,0,0,0,0,0,0,0,0,
0,0,-52,-2048,77,-8,-18,6,176,0,0,0,0,0,0,0,0,0,0,0,
0,0,-57,-2045,80,-11,-21,7,172,0,0,0,0,0,0,0,0,0,0,0,
0,0,-55,-2053,85,-7,-17,8,179,0,0,0,0,0,0,0,0,0,0,0,
0,0,-57,-2047,88,-7,-17,8,187,0,0,0,0,0,0,0,0,0,0,0,
0,0,-57,-2047,88,-6,-18,2,181,0,0,0,0,0,0,0,0,0,0,0,
0,0,-58,-2049,87,-9,-16,7,180,0,0,0,0,0,0,0,0,0,0,0,
0,0,-54,-2045,74,-11,-19,5,169,0,0,0,0,0,0,0,0,0,0,0,
0,0,-55,-2047,77,-8,-18,4,172,0,0,0,0,0,0,0,0,0,0,0,
0,0,-60,-2049,81,-7,-17,7,173,0,0,0,0,0,0,0,0,0,0,0,
0,0,-53,-2047,70,-8,-15,6,172,0,0,0,0,0,0,0,0,0,0,0,
0,0,-56,-2042,72,-6,-16,6,177,0,0,0,0,0,0,0,0,0,0,0,
0,0,-57,-2050,82,-8,-19,8,174,0,0,0,0,0,0,0,0,0,0,0,
0,0,-57,-2047,77,-5,-19,6,174,0,0,0,0,0,0,0,0,0,0,0,
0,0,-56,-2042,82,-7,-18,7,185,0,0,0,0,0,0,0,0,0,0,0,
0,0,-57,-2046,76,-9,-15,6,174,0,0,0,0,0,0,0,0,0,0,0,
0,0,-55,-2048,80,-7,-17,7,179,0,0,0,0,0,0,0,0,0,0,0,
0,0,-55,-2047,85,-9,-16,4,181,0,0,0,0,0,0,0,0,0,0,0,
0,0,-59,-2049,80,-12,-18,2,162,0,0,0,0,0,0,0,0,0,0,0,
0,0,-54,-2051,81,-9,-19,2,168,0,0,0,0,0,0,0,0,0,0,0,
0,0,-55,-2051,79,-6,-18,2,169,0,0,0,0,0,0,0,0,0,0,0,
0,0,-57,-2053,71,-7,-19,7,160,0,0,0,0,0,0,0,0,0,0,0,
0,0,-59,-2048,88,-5,-17,7,185,0,0,0,0,0,0,0,0,0,0,0,
0,0,-56,-2053,75,-8,-19,3,160,0,0,0,0,0,0,0,0,0,0,0,
0,0,-55,-2052,81,-9,-16,3,170,0,0,0,0,0,0,0,0,0,0,0,
0,0,-58,-2046,81,-5,-17,8,182,0,0,0,0,0,0,0,0,0,0,0,
0,0,-61,-2045,86,-7,-15,8,185,0,0,0,0,0,0,0,0,0,0,0,
0,0,-58,-2046,76,-8,-17,4,170,0,0,0,0,0,0,0,0,0,0,0,
0,0,-65,-2050,80,-10,-21,5,157,0,0,0,0,0,0,0,0,0,0,0,
0,0,-60,-2053,86,-8,-19,9,173,0,0,0,0,0,0,0,0,0,0,0,
0,0,-57,-2046,80,-3,-17,8,184,0,0,0,0,0,0,0,0,0,0,0,
0,0,-58,-2045,80,-10,-19,7,174,0,0,0,0,0,0,0,0,0,0,0,
0,0,-59,-2048,77,-4,-18,7,174,0,0,0,0,0,0,0,0,0,0,0,
0,0,-56,-2049,88,-8,-19,6,180,0,0,0,0,0,0,0,0,0,0,0,
0,0,-63,-2046,82,-7,-19,7,173,0,0,0,0,0,0,0,0,0,0,0,
0,0,-60,-2040,78,-12,-22,2,165,0,0,0,0,0,0,0,0,0,0,0,
0,0,-53,-2047,80,-8,-17,5,179,0,0,0,0,0,0,0,0,0,0,0,
0,0,-60,-2051,84,-6,-18,6,173,0,0,0,0,0,0,0,0,0,0,0,
0,0,-55,-2051,77,-4,-17,5,173,0,0,0,0,0,0,0,0,0,0,0,
0,0,-58,-2052,78,-7,-17,5,167,0,0,0,0,0,0,0,0,0,0,0,
0,0,-54,-2050,79,-9,-16,1,169,0,0,0,0,0,0,0,0,0,0,0,
0,0,-56,-2053,73,-8,-16,6,164,0,0,0,0,0,0,0,0,0,0,0,
0,0,-55,-2048,75,-6,-21,5,169,0,0,0,0,0,0,0,0,0,0,0,
0,0,-60,-2044,82,-8,-16,2,175,0,0,0,0,0,0,0,0,0,0,0,
0,0,-61,-2055,81,-4,-19,6,166,0,0,0,0,0,0,0,0,0,0,0,
0,0,-67,-2045,72,-6,-19,5,159,0,0,0,0,0,0,0,0,0,0,0,
0,0,-56,-2047,78,-7,-18,6,175,0,0,0,0,0,0,0,0,0,0,0,
0,0,-59,-2054,78,-7,-21,4,159,0,0,0,0,0,0,0,0,0,0,0,
0,0,-54,-2044,84,-8,-18,5,184,0,0,0,0,0,0,0,0,0,0,0,
0,0,-59,-2054,76,-6,-20,6,161,0,0,0,0,0,0,0,0,0,0,0,
0,0,-62,-2049,79,-3,-17,7,173,0,0,0,0,0,0,0,0,0,0,0,
0,0,-56,-2045,83,-4,-19,4,182,0,0,0,0,0,0,0,0,0,0,0,
0,0,-51,-2052,79,-7,-19,4,172,0,0,0,0,0,0,0,0,0,0,0,
0,0,-55,-2050,81,-8,-18,8,176,0,0,0,0,0,0,0,0,0,0,0,
0,0,-61,-2046,80,-8,-20,6,170,0,0,0,0,0,0,0,0,0,0,0,
0,0,-60,-2047,80,-10,-19,8,171,0,0,0,0,0,0,0,0,0,0,0,
0,0,-51,-2043,80,-6,-19,6,186,0,0,0,0,0,0,0,0,0,0,0,
0,0,-54,-2042,83,-10,-17,8,187,0,0,0,0,0,0,0,0,0,0,0,
0,0,-57,-2045,75,-4,-17,4,175,0,0,0,0,0,0,0,0,0,0,0,
0,0,-52,-2048,87,-10,-18,5,183,0,0,0,0,0,0,0,0,0,0,0,
0,0,-56,-2047,73,-6,-17,5,171,0,0,0,0,0,0,0,0,0,0,0,
0,0,-55,-2055,78,-7,-19,5,165,0,0,0,0,0,0,0,0,0,0,0,
0,0,-57,-2049,82,-5,-17,4,176,0,0,0,0,0,0,0,0,0,0,0,
0,0,-59,-2047,78,-10,-19,6,168,0,0,0,0,0,0,0,0,0,0,0,
0,0,-59,-2052,74,-7,-20,6,160,0,0,0,0,0,0,0,0,0,0,0,
0,0,-58,-2050,74,-9,-15,5,165,0,0,0,0,0,0,0,0,0,0,0,
0,0,-50,-2046,83,-7,-19,6,186,0,0,0,0,0,0,0,0,0,0,0,
0,0,-56,-2051,83,-9,-18,3,170,0,0,0,0,0,0,0,0,0,0,0,
0,0,-58,-2058,76,-8,-20,8,158,0,0,0,0,0,0,0,0,0,0,0,
0,0,-60,-2052,81,-5,-19,5,168,0,0,0,0,0,0,0,0,0,0,0,
0,0,-53,-2049,80,-9,-20,3,170,0,0,0,0,0,0,0,0,0,0,0,
0,0,-61,-2049,80,-6,-17,5,170,0,0,0,0,0,0,0,0,0,0,0,
0,0,-48,-2047,81,-7,-17,6,187,0,0,0,0,0,0,0,0,0,0,0,
0,0,-64,-2052,78,-6,-20,4,158,0,0,0,0,0,0,0,0,0,0,0,
0,0,-60,-2048,84,-8,-19,3,171,0,0,0,0,0,0,0,0,0,0,0,
0,0,-56,-2049,75,-7,-19,5,167,0,0,0,0,0,0,0,0,0,0,0,
0,0,-60,-2049,79,-8,-22,9,167,0,0,0,0,0,0,0,0,0,0,0,
0,0,-55,-2051,74,-7,-20,5,164,0,0,0,0,0,0,0,0,0,0,0,
0,0,-58,-2056,82,-6,-17,6,169,0,0,0,0,0,0,0,0,0,0,0,
0,0,-54,-2057,80,-7,-21,6,165,0,0,0,0,0,0,0,0,0,0,0,
0,0,-56,-2049,76,-9,-19,9,170,0,0,0,0,0,0,0,0,0,0,0,
0,0,-59,-2051,83,-6,-19,4,170,0,0,0,0,0,0,0,0,0,0,0,
0,0,-57,-2044,86,-8,-18,3,181,0,0,0,0,0,0,0,0,0,0,0,
0,0,-55,-2044,74,-5,-19,8,178,0,0,0,0,0,0,0,0,0,0,0,
0,0,-55,-2050,75,-8,-18,6,168,0,0,0,0,0,0,0,0,0,0,0,
0,0,-55,-2046,75,-9,-18,3,169,0,0,0,0,0,0,0,0,0,0,0,
0,0,-56,-2056,74,-8,-18,5,159,0,0,0,0,0,0,0,0,0,0,0,
0,0,-65,-2049,87,-4,-16,6,177,0,0,0,0,0,0,0,0,0,0,0,
0,0,-55,-2049,80,-4,-19,4,175,0,0,0,0,0,0,0,0,0,0,0,
0,0,-63,-2048,78,-6,-19,3,164,0,0,0,0,0,0,0,0,0,0,0,
0,0,-55,-2052,88,-8,-19,4,176,0,0,0,0,0,0,0,0,0,0,0,
0,0,-59,-2052,84,-8,-20,6,169,0,0,0,0,0,0,0,0,0,0,0,
0,0,-60,-2048,72,-10,-18,6,161,0,0,0,0,0,0,0,0,0,0,0,
0,0,-55,-2051,78,-7,-17,4,170,0,0,0,0,0,0,0,0,0,0,0,
0,0,-60,-2050,80,-12,-18,6,164,0,0,0,0,0,0,0,0,0,0,0,
0,0,-54,-2048,83,-7,-19,4,178,0,0,0,0,0,0,0,0,0,0,0,
0,0,-54,-2049,79,-12,-18,6,170,0,0,0,0,0,0,0,0,0,0,0,
0,0,-55,-2051,73,-5,-15,5,170,0,0,0,0,0,0,0,0,0,0,0,
0,0,-54,-2048,79,-10,-17,4,173,0,0,0,0,0,0,0,0,0,0,0,
0,0,-54,-2048,79,-10,-17,4,173,0,0,0,0,0,0,0,0,0,0,0,
0,0,-52,-2049,78,-10,-20,4,169,0,0,0,0,0,0,0,0,0,0,0,
0,0,-53,-2053,81,-6,-21,2,168,0,0,0,0,0,0,0,0,0,0,0,
0,0,-55,-2052,75,-11,-19,5,161,0,0,0,0,0,0,0,0,0,0,0,
0,0,-55,-2052,75,-11,-19,5,161,0,0,0,0,0,0,0,0,0,0,0,
0,0,-60,-2048,78,-4,-18,5,172,0,0,0,0,0,0,0,0,0,0,0,
0,0,-61,-2049,76,-8,-17,4,163,0,0,0,0,0,0,0,0,0,0,0,
0,0,-62,-2046,78,-8,-17,6,170,0,0,0,0,0,0,0,0,0,0,0,
0,0,-62,-2050,83,-7,-21,4,165,0,0,0,0,0,0,0,0,0,0,0,
0,0,-62,-2050,83,-7,-21,4,165,0,0,0,0,0,0,0,0,0,0,0,
0,0,-56,-2050,84,-6,-20,7,177,0,0,0,0,0,0,0,0,0,0,0,
0,0,-56,-2048,77,-10,-19,7,170,0,0,0,0,0,0,0,0,0,0,0,
0,0,-62,-2042,81,-7,-18,8,179,0,0,0,0,0,0,0,0,0,0,0,
0,0,-61,-2058,84,-7,-20,5,161,0,0,0,0,0,0,0,0,0,0,0,
0,0,-57,-2049,72,-7,-18,4,163,0,0,0,0,0,0,0,0,0,0,0,
0,0,-55,-2052,78,-5,-19,5,170,0,0,0,0,0,0,0,0,0,0,0,
0,0,-57,-2045,83,-6,-17,4,181,0,0,0,0,0,0,0,0,0,0,0,
0,0,-56,-2051,74,-5,-17,6,169,0,0,0,0,0,0,0,0,0,0,0,
0,0,-56,-2051,74,-5,-17,6,169,0,0,0,0,0,0,0,0,0,0,0,
0,0,-55,-2052,86,-5,-18,4,178,0,0,0,0,0,0,0,0,0,0,0,
0,0,-55,-2050,79,-9,-18,5,170,0,0,0,0,0,0,0,0,0,0,0,
0,0,-54,-2058,80,-10,-20,5,161,0,0,0,0,0,0,0,0,0,0,0,
0,0,-63,-2056,78,-9,-18,3,153,0,0,0,0,0,0,0,0,0,0,0,
0,0,-58,-2051,85,-7,-22,4,169,0,0,0,0,0,0,0,0,0,0,0,
0,0,-51,-2045,65,-8,-18,3,165,0,0,0,0,0,0,0,0,0,0,0,
0,0,-56,-2046,78,-9,-18,7,175,0,0,0,0,0,0,0,0,0,0,0,
0,0,-58,-2053,72,-6,-19,6,160,0,0,0,0,0,0,0,0,0,0,0,
0,0,-58,-2050,80,-7,-18,8,173,0,0,0,0,0,0,0,0,0,0,0,
0,0,-53,-2048,71,-5,-20,9,173,0,0,0,0,0,0,0,0,0,0,0,
0,0,-55,-2049,84,-5,-16,6,183,0,0,0,0,0,0,0,0,0,0,0,
0,0,-56,-2051,80,-5,-18,7,175,0,0,0,0,0,0,0,0,0,0,0,
0,0,-62,-2056,82,-10,-16,6,162,0,0,0,0,0,0,0,0,0,0,0,
0,0,-59,-2048,80,-7,-17,2,170,0,0,0,0,0,0,0,0,0,0,0,
0,0,-62,-2047,78,-8,-18,2,164,0,0,0,0,0,0,0,0,0,0,0,
0,0,-61,-2046,84,-7,-19,8,178,0,0,0,0,0,0,0,0,0,0,0,
0,0,-58,-2055,74,-7,-19,5,158,0,0,0,0,0,0,0,0,0,0,0,
0,0,-59,-2045,83,-5,-20,7,180,0,0,0,0,0,0,0,0,0,0,0,
0,0,-56,-2049,81,-6,-17,5,176,0,0,0,0,0,0,0,0,0,0,0,
0,0,-56,-2043,77,-8,-13,3,179,0,0,0,0,0,0,0,0,0,0,0,
0,0,-61,-2051,77,-10,-17,3,159,0,0,0,0,0,0,0,0,0,0,0,
0,0,-52,-2046,77,-13,-18,5,172,0,0,0,0,0,0,0,0,0,0,0,
0,0,-53,-2046,79,-12,-19,8,176,0,0,0,0,0,0,0,0,0,0,0,
0,0,-62,-2052,84,-7,-15,3,169,0,0,0,0,0,0,0,0,0,0,0,
0,0,-58,-2048,81,-10,-17,2,169,0,0,0,0,0,0,0,0,0,0,0,
0,0,-64,-2047,82,-10,-18,5,167,0,0,0,0,0,0,0,0,0,0,0,
0,0,-61,-2042,78,-6,-17,5,176,0,0,0,0,0,0,0,0,0,0,0,
0,0,-65,-2044,81,-10,-20,3,164,0,0,0,0,0,0,0,0,0,0,0,
0,0,-54,-2054,82,-9,-18,6,171,0,0,0,0,0,0,0,0,0,0,0,
0,0,-61,-2053,83,-8,-21,5,163,0,0,0,0,0,0,0,0,0,0,0,
0,0,-61,-2051,78,-10,-19,4,159,0,0,0,0,0,0,0,0,0,0,0,
0,0,-56,-2046,76,-10,-20,5,168,0,0,0,0,0,0,0,0,0,0,0,
0,0,-59,-2049,80,-11,-17,2,164,0,0,0,0,0,0,0,0,0,0,0,
0,0,-58,-2059,72,-7,-18,2,150,0,0,0,0,0,0,0,0,0,0,0,
0,0,-55,-2050,82,-6,-18,6,177,0,0,0,0,0,0,0,0,0,0,0,
0,0,-60,-2046,80,-5,-16,4,176,0,0,0,0,0,0,0,0,0,0,0,
0,0,-58,-2049,72,-10,-19,5,159,0,0,0,0,0,0,0,0,0,0,0,
0,0,-55,-2049,77,-8,-16,8,175,0,0,0,0,0,0,0,0,0,0,0,
0,0,-55,-2051,75,-4,-16,9,176,0,0,0,0,0,0,0,0,0,0,0,
0,0,-59,-2050,81,-7,-19,4,168,0,0,0,0,0,0,0,0,0,0,0,
0,0,-60,-2051,77,-5,-16,6,169,0,0,0,0,0,0,0,0,0,0,0,
0,0,-57,-2047,79,-8,-20,5,171,0,0,0,0,0,0,0,0,0,0,0,
0,0,-51,-2047,81,-7,-20,3,178,0,0,0,0,0,0,0,0,0,0,0,
0,0,-61,-2049,84,-8,-18,7,173,0,0,0,0,0,0,0,0,0,0,0,
0,0,-57,-2050,81,-11,-18,4,167,0,0,0,0,0,0,0,0,0,0,0,
0,0,-56,-2050,76,-7,-18,7,170,0,0,0,0,0,0,0,0,0,0,0,
0,0,-56,-2053,78,-9,-18,7,167,0,0,0,0,0,0,0,0,0,0,0,
0,0,-55,-2049,75,-9,-16,7,171,0,0,0,0,0,0,0,0,0,0,0,
0,0,-54,-2048,81,-8,-17,4,177,0,0,0,0,0,0,0,0,0,0,0,
0,0,-50,-2056,78,-6,-18,7,173,0,0,0,0,0,0,0,0,0,0,0,
0,0,-58,-2053,80,-11,-18,6,164,0,0,0,0,0,0,0,0,0,0,0,
0,0,-61,-2050,83,-8,-14,6,174,0,0,0,0,0,0,0,0,0,0,0,
0,0,-59,-2044,80,-6,-16,4,178,0,0,0,0,0,0,0,0,0,0,0,
0,0,-60,-2049,78,-7,-18,6,168,0,0,0,0,0,0,0,0,0,0,0,
0,0,-58,-2048,77,-8,-18,10,174,0,0,0,0,0,0,0,0,0,0,0,
0,0,-57,-2048,79,-9,-19,5,170,0,0,0,0,0,0,0,0,0,0,0,
0,0,-58,-2045,76,-10,-17,2,167,0,0,0,0,0,0,0,0,0,0,0,
0,0,-59,-2046,85,-6,-19,3,177,0,0,0,0,0,0,0,0,0,0,0,
0,0,-53,-2049,83,-9,-20,6,176,0,0,0,0,0,0,0,0,0,0,0,
0,0,-66,-2047,80,-10,-20,3,159,0,0,0,0,0,0,0,0,0,0,0,
0,0,-62,-2044,83,-9,-22,6,171,0,0,0,0,0,0,0,0,0,0,0,
0,0,-53,-2050,78,-7,-16,4,174,0,0,0,0,0,0,0,0,0,0,0,
0,0,-51,-2054,82,-7,-19,4,173,0,0,0,0,0,0,0,0,0,0,0,
0,0,-59,-2054,77,-7,-20,4,159,0,0,0,0,0,0,0,0,0,0,0,
0,0,-59,-2052,79,-6,-20,2,162,0,0,0,0,0,0,0,0,0,0,0,
0,0,-55,-2052,82,-11,-21,7,168,0,0,0,0,0,0,0,0,0,0,0,
0,0,-59,-2052,85,-7,-19,6,172,0,0,0,0,0,0,0,0,0,0,0,
0,0,-57,-2052,81,-9,-17,3,167,0,0,0,0,0,0,0,0,0,0,0,
0,0,-58,-2051,77,-8,-19,7,166,0,0,0,0,0,0,0,0,0,0,0,
0,0,-60,-2048,78,-4,-18,8,175,0,0,0,0,0,0,0,0,0,0,0,
0,0,-54,-2051,77,-9,-18,6,169,0,0,0,0,0,0,0,0,0,0,0,
0,0,-57,-2047,81,-5,-16,5,180,0,0,0,0,0,0,0,0,0,0,0,
0,0,-52,-2054,80,-8,-19,5,170,0,0,0,0,0,0,0,0,0,0,0,
0,0,-59,-2051,83,-8,-20,9,172,0,0,0,0,0,0,0,0,0,0,0,
0,0,-66,-2053,80,-6,-16,4,161,0,0,0,0,0,0,0,0,0,0,0,
0,0,-52,-2049,79,-6,-21,5,174,0,0,0,0,0,0,0,0,0,0,0,
0,0,-62,-2054,79,-9,-17,4,159,0,0,0,0,0,0,0,0,0,0,0,
0,0,-57,-2046,81,-2,-18,8,185,0,0,0,0,0,0,0,0,0,0,0,
0,0,-55,-2050,72,-5,-19,2,163,0,0,0,0,0,0,0,0,0,0,0,
0,0,-59,-2046,79,-6,-19,7,175,0,0,0,0,0,0,0,0,0,0,0,
0,0,-56,-2051,81,-8,-15,6,175,0,0,0,0,0,0,0,0,0,0,0,
0,0,-54,-2051,74,-9,-19,5,164,0,0,0,0,0,0,0,0,0,0,0,
0,0,-60,-2048,79,-8,-20,4,166,0,0,0,0,0,0,0,0,0,0,0,
0,0,-58,-2051,78,-10,-20,5,162,0,0,0,0,0,0,0,0,0,0,0,
0,0,-57,-2056,78,-7,-15,4,165,0,0,0,0,0,0,0,0,0,0,0,
0,0,-62,-2051,72,-6,-19,4,156,0,0,0,0,0,0,0,0,0,0,0,
0,0,-59,-2048,80,-5,-19,6,174,0,0,0,0,0,0,0,0,0,0,0,
0,0,-56,-2058,87,-6,-16,10,179,0,0,0,0,0,0,0,0,0,0,0,
0,0,-63,-2047,83,-4,-19,5,174,0,0,0,0,0,0,0,0,0,0,0,
0,0,-59,-2051,77,-7,-20,4,162,0,0,0,0,0,0,0,0,0,0,0,
0,0,-53,-2040,85,-6,-18,5,192,0,0,0,0,0,0,0,0,0,0,0,
0,0,-65,-2048,78,-6,-17,7,168,0,0,0,0,0,0,0,0,0,0,0,
0,0,-65,-2048,78,-6,-17,7,168,0,0,0,0,0,0,0,0,0,0,0,
0,0,-59,-2047,78,-7,-18,2,168,0,0,0,0,0,0,0,0,0,0,0,
0,0,-58,-2047,82,-7,-16,7,180,0,0,0,0,0,0,0,0,0,0,0,
0,0,-57,-2046,88,-9,-19,5,181,0,0,0,0,0,0,0,0,0,0,0,
0,0,-57,-2046,88,-7,-20,6,183,0,0,0,0,0,0,0,0,0,0,0,
0,0,-55,-2044,73,-7,-20,6,172,0,0,0,0,0,0,0,0,0,0,0,
0,0,-58,-2043,79,-4,-16,7,184,0,0,0,0,0,0,0,0,0,0,0,
0,0,-61,-2052,82,-7,-16,3,167,0,0,0,0,0,0,0,0,0,0,0,
0,0,-61,-2052,82,-7,-19,6,167,0,0,0,0,0,0,0,0,0,0,0,
0,0,-57,-2052,81,-6,-19,6,171,0,0,0,0,0,0,0,0,0,0,0,
0,0,-58,-2044,85,-7,-18,2,179,0,0,0,0,0,0,0,0,0,0,0,
0,0,-57,-2051,72,-10,-19,7,160,0,0,0,0,0,0,0,0,0,0,0,
0,0,-57,-2055,83,-9,-20,3,163,0,0,0,0,0,0,0,0,0,0,0,
0,0,-61,-2047,85,-8,-21,5,172,0,0,0,0,0,0,0,0,0,0,0,
0,0,-50,-2047,81,-9,-18,6,182,0,0,0,0,0,0,0,0,0,0,0,
0,0,-63,-2047,80,-9,-20,5,165,0,0,0,0,0,0,0,0,0,0,0,
0,0,-60,-2048,81,-7,-19,5,171,0,0,0,0,0,0,0,0,0,0,0,
0,0,-58,-2053,85,-5,-17,7,177,0,0,0,0,0,0,0,0,0,0,0,
0,0,-60,-2045,78,-10,-19,8,171,0,0,0,0,0,0,0,0,0,0,0,
0,0,-59,-2046,78,-8,-20,4,168,0,0,0,0,0,0,0,0,0,0,0,
0,0,-59,-2050,85,-7,-17,5,175,0,0,0,0,0,0,0,0,0,0,0,
0,0,-64,-2043,71,-8,-15,6,166,0,0,0,0,0,0,0,0,0,0,0,
0,0,-57,-2045,77,-8,-16,9,179,0,0,0,0,0,0,0,0,0,0,0,
0,0,-55,-2048,86,-9,-19,8,182,0,0,0,0,0,0,0,0,0,0,0,
0,0,-55,-2046,75,-11,-21,6,167,0,0,0,0,0,0,0,0,0,0,0,
0,0,-59,-2047,80,-6,-16,6,177,0,0,0,0,0,0,0,0,0,0,0,
0,0,-57,-2048,77,-7,-15,4,173,0,0,0,0,0,0,0,0,0,0,0,
0,0,-53,-2047,77,-7,-18,4,175,0,0,0,0,0,0,0,0,0,0,0,
0,0,-61,-2048,80,-9,-21,4,164,0,0,0,0,0,0,0,0,0,0,0,
0,0,-55,-2048,77,-9,-18,5,171,0,0,0,0,0,0,0,0,0,0,0,
0,0,-55,-2053,74,-11,-18,3,158,0,0,0,0,0,0,0,0,0,0,0,
0,0,-54,-2052,76,-4,-17,5,172,0,0,0,0,0,0,0,0,0,0,0,
0,0,-57,-2044,82,-8,-15,4,181,0,0,0,0,0,0,0,0,0,0,0,
0,0,-60,-2049,86,-9,-21,3,168,0,0,0,0,0,0,0,0,0,0,0,
0,0,-54,-2049,78,-4,-18,5,176,0,0,0,0,0,0,0,0,0,0,0,
0,0,-51,-2055,76,-7,-19,3,165,0,0,0,0,0,0,0,0,0,0,0,
0,0,-56,-2049,84,-8,-17,3,175,0,0,0,0,0,0,0,0,0,0,0,
0,0,-64,-2051,82,-5,-15,4,169,0,0,0,0,0,0,0,0,0,0,0,
0,0,-53,-2048,80,-5,-21,4,176,0,0,0,0,0,0,0,0,0,0,0,
0,0,-56,-2047,80,-7,-21,4,172,0,0,0,0,0,0,0,0,0,0,0,
0,0,-52,-2052,82,-6,-20,7,177,0,0,0,0,0,0,0,0,0,0,0,
0,0,-54,-2051,79,-9,-16,5,172,0,0,0,0,0,0,0,0,0,0,0,
0,0,-58,-2043,78,-9,-18,5,174,0,0,0,0,0,0,0,0,0,0,0,
0,0,-59,-2044,80,-7,-17,4,176,0,0,0,0,0,0,0,0,0,0,0,
0,0,-58,-2049,78,-8,-18,6,169,0,0,0,0,0,0,0,0,0,0,0,
0,0,-56,-2051,79,-7,-21,7,169,0,0,0,0,0,0,0,0,0,0,0,
0,0,-52,-2047,79,-10,-16,8,181,0,0,0,0,0,0,0,0,0,0,0,
0,0,-52,-2052,77,-4,-18,7,176,0,0,0,0,0,0,0,0,0,0,0,
0,0,-58,-2055,82,-10,-16,5,166,0,0,0,0,0,0,0,0,0,0,0,
0,0,-56,-2040,82,-5,-18,3,185,0,0,0,0,0,0,0,0,0,0,0,
0,0,-61,-2051,77,-8,-20,8,163,0,0,0,0,0,0,0,0,0,0,0,
0,0,-58,-2046,75,-11,-18,6,167,0,0,0,0,0,0,0,0,0,0,0,
0,0,-56,-2047,77,-9,-19,3,168,0,0,0,0,0,0,0,0,0,0,0,
0,0,-58,-2047,84,-5,-17,7,183,0,0,0,0,0,0,0,0,0,0,0,
0,0,-57,-2053,83,-5,-18,5,173,0,0,0,0,0,0,0,0,0,0,0,
0,0,-52,-2052,76,-9,-16,3,168,0,0,0,0,0,0,0,0,0,0,0,
0,0,-55,-2048,83,-5,-16,5,183,0,0,0,0,0,0,0,0,0,0,0,
0,0,-58,-2048,83,-7,-18,6,177,0,0,0,0,0,0,0,0,0,0,0,
0,0,-60,-2051,87,-6,-19,9,178,0,0,0,0,0,0,0,0,0,0,0,
0,0,-55,-2050,74,-6,-17,6,170,0,0,0,0,0,0,0,0,0,0,0,
0,0,-56,-2051,79,-8,-17,4,169,0,0,0,0,0,0,0,0,0,0,0,
0,0,-58,-2049,89,-7,-18,6,181,0,0,0,0,0,0,0,0,0,0,0,
0,0,-60,-2056,77,-5,-17,7,164,0,0,0,0,0,0,0,0,0,0,0,
0,0,-59,-2048,80,-8,-16,2,170,0,0,0,0,0,0,0,0,0,0,0,
0,0,-57,-2045,79,-7,-16,9,182,0,0,0,0,0,0,0,0,0,0,0,
0,0,-60,-2050,80,-9,-19,6,166,0,0,0,0,0,0,0,0,0,0,0,
0,0,-57,-2050,78,-10,-19,5,165,0,0,0,0,0,0,0,0,0,0,0,
0,0,-60,-2049,78,-6,-18,3,166,0,0,0,0,0,0,0,0,0,0,0,
0,0,-62,-2045,78,-5,-18,6,173,0,0,0,0,0,0,0,0,0,0,0,
0,0,-52,-2039,80,-6,-19,5,188,0,0,0,0,0,0,0,0,0,0,0,
0,0,-54,-2044,82,-9,-19,6,181,0,0,0,0,0,0,0,0,0,0,0,
0,0,-56,-2051,80,-10,-18,4,167,0,0,0,0,0,0,0,0,0,0,0,
0,0,-55,-2053,85,-7,-18,7,177,0,0,0,0,0,0,0,0,0,0,0,
0,0,-56,-2049,76,-6,-19,9,173,0,0,0,0,0,0,0,0,0,0,0,
0,0,-61,-2050,75,-9,-15,2,160,0,0,0,0,0,0,0,0,0,0,0,
0,0,-58,-2048,86,-8,-17,5,179,0,0,0,0,0,0,0,0,0,0,0,
0,0,-58,-2047,73,-6,-15,6,172,0,0,0,0,0,0,0,0,0,0,0,
0,0,-56,-2050,75,-8,-16,7,170,0,0,0,0,0,0,0,0,0,0,0,
0,0,-61,-2054,73,-5,-22,7,156,0,0,0,0,0,0,0,0,0,0,0,
0,0,-56,-2043,84,-5,-15,7,191,0,0,0,0,0,0,0,0,0,0,0,
0,0,-54,-2042,76,-6,-17,8,184,0,0,0,0,0,0,0,0,0,0,0,
0,0,-56,-2048,72,-10,-19,3,161,0,0,0,0,0,0,0,0,0,0,0,
0,0,-56,-2048,83,-7,-19,4,176,0,0,0,0,0,0,0,0,0,0,0,
0,0,-57,-2050,80,-4,-15,6,178,0,0,0,0,0,0,0,0,0,0,0,
0,0,-58,-2050,82,-9,-16,4,171,0,0,0,0,0,0,0,0,0,0,0,
0,0,-57,-2050,78,-11,-19,9,168,0,0,0,0,0,0,0,0,0,0,0,
0,0,-57,-2051,79,-5,-14,8,178,0,0,0,0,0,0,0,0,0,0,0,
0,0,-55,-2044,72,-5,-14,8,181,0,0,0,0,0,0,0,0,0,0,0,
0,0,-58,-2051,79,-8,-20,5,165,0,0,0,0,0,0,0,0,0,0,0,
0,0,-59,-2056,80,-12,-20,3,154,0,0,0,0,0,0,0,0,0,0,0,
0,0,-61,-2051,74,-8,-19,3,156,0,0,0,0,0,0,0,0,0,0,0,
0,0,-50,-2049,73,-6,-17,4,173,0,0,0,0,0,0,0,0,0,0,0,
0,0,-55,-2048,81,-8,-16,9,182,0,0,0,0,0,0,0,0,0,0,0,
0,0,-58,-2057,81,-4,-19,6,167,0,0,0,0,0,0,0,0,0,0,0,
0,0,-60,-2052,80,-8,-16,6,168,0,0,0,0,0,0,0,0,0,0,0,
0,0,-57,-2050,81,-10,-19,3,166,0,0,0,0,0,0,0,0,0,0,0,
0,0,-58,-2052,78,-8,-16,4,166,0,0,0,0,0,0,0,0,0,0,0,
0,0,-55,-2050,74,-4,-20,6,169,0,0,0,0,0,0,0,0,0,0,0,
0,0,-60,-2054,79,-5,-19,7,166,0,0,0,0,0,0,0,0,0,0,0,
0,0,-57,-2050,82,-8,-19,5,171,0,0,0,0,0,0,0,0,0,0,0,
0,0,-58,-2045,70,-7,-20,6,165,0,0,0,0,0,0,0,0,0,0,0,
0,0,-57,-2043,75,-6,-20,8,176,0,0,0,0,0,0,0,0,0,0,0,
0,0,-56,-2046,77,-7,-21,5,171,0,0,0,0,0,0,0,0,0,0,0,
0,0,-57,-2047,74,-6,-19,7,171,0,0,0,0,0,0,0,0,0,0,0,
0,0,-57,-2046,78,-10,-15,3,172,0,0,0,0,0,0,0,0,0,0,0,
0,0,-62,-2048,84,-10,-20,7,170,0,0,0,0,0,0,0,0,0,0,0,
0,0,-58,-2056,82,-10,-16,4,164,0,0,0,0,0,0,0,0,0,0,0,
0,0,-56,-2048,77,-7,-18,4,171,0,0,0,0,0,0,0,0,0,0,0,
0,0,-56,-2048,77,-7,-18,4,171,0,0,0,0,0,0,0,0,0,0,0,
0,0,-59,-2048,80,-8,-17,5,172,0,0,0,0,0,0,0,0,0,0,0,
0,0,-55,-2049,72,-8,-18,3,163,0,0,0,0,0,0,0,0,0,0,0,
0,0,-62,-2048,75,-6,-17,2,163,0,0,0,0,0,0,0,0,0,0,0,
0,0,-56,-2053,74,-6,-19,5,163,0,0,0,0,0,0,0,0,0,0,0,
0,0,-57,-2055,79,-7,-16,5,167,0,0,0,0,0,0,0,0,0,0,0,
0,0,-57,-2055,79,-5,-20,3,163,0,0,0,0,0,0,0,0,0,0,0,
0,0,-55,-2046,76,-10,-19,7,172,0,0,0,0,0,0,0,0,0,0,0,
0,0,-54,-2052,86,-4,-19,8,183,0,0,0,0,0,0,0,0,0,0,0,
0,0,-61,-2052,77,-8,-21,3,156,0,0,0,0,0,0,0,0,0,0,0,
0,0,-61,-2052,77,-7,-21,8,162,0,0,0,0,0,0,0,0,0,0,0,
0,0,-61,-2059,74,-6,-18,2,150,0,0,0,0,0,0,0,0,0,0,0,
0,0,-59,-2049,84,-6,-18,6,176,0,0,0,0,0,0,0,0,0,0,0,
0,0,-52,-2046,79,-7,-16,6,183,0,0,0,0,0,0,0,0,0,0,0,
0,0,-53,-2051,83,-10,-18,9,178,0,0,0,0,0,0,0,0,0,0,0,
0,0,-54,-2051,74,-7,-17,7,170,0,0,0,0,0,0,0,0,0,0,0,
0,0,-59,-2051,83,-10,-19,5,167,0,0,0,0,0,0,0,0,0,0,0,
0,0,-67,-2048,76,-11,-19,5,155,0,0,0,0,0,0,0,0,0,0,0,
0,0,-53,-2052,72,-7,-16,3,165,0,0,0,0,0,0,0,0,0,0,0,
0,0,-59,-2049,75,-5,-17,5,168,0,0,0,0,0,0,0,0,0,0,0,
0,0,-55,-2047,85,-10,-17,5,180,0,0,0,0,0,0,0,0,0,0,0,
0,0,-56,-2049,86,-10,-16,8,181,0,0,0,0,0,0,0,0,0,0,0,
0,0,-60,-2051,88,-1,-17,3,180,0,0,0,0,0,0,0,0,0,0,0,
0,0,-54,-2055,81,-4,-15,3,174,0,0,0,0,0,0,0,0,0,0,0,
0,0,-54,-2055,81,-4,-15,3,174,0,0,0,0,0,0,0,0,0,0,0,
0,0,-61,-2050,79,-6,-17,8,171,0,0,0,0,0,0,0,0,0,0,0,
0,0,-60,-2049,84,-7,-21,8,173,0,0,0,0,0,0,0,0,0,0,0,
0,0,-60,-2048,73,-8,-19,5,162,0,0,0,0,0,0,0,0,0,0,0,
0,0,-57,-2048,80,-6,-19,7,176,0,0,0,0,0,0,0,0,0,0,0,
0,0,-61,-2054,75,-8,-19,7,158,0,0,0,0,0,0,0,0,0,0,0,
0,0,-58,-2052,79,-7,-13,7,174,0,0,0,0,0,0,0,0,0,0,0,
0,0,-56,-2058,81,-6,-19,6,166,0,0,0,0,0,0,0,0,0,0,0,
0,0,-51,-2046,88,-6,-18,9,195,0,0,0,0,0,0,0,0,0,0,0,
0,0,-56,-2044,79,-8,-15,3,178,0,0,0,0,0,0,0,0,0,0,0,
0,0,-54,-2043,80,-9,-15,8,186,0,0,0,0,0,0,0,0,0,0,0,
0,0,-57,-2049,75,-7,-19,7,168,0,0,0,0,0,0,0,0,0,0,0,
0,0,-57,-2053,84,-5,-18,5,174,0,0,0,0,0,0,0,0,0,0,0,
0,0,-52,-2043,80,-10,-20,4,178,0,0,0,0,0,0,0,0,0,0,0,
0,0,-52,-2047,85,-6,-18,8,189,0,0,0,0,0,0,0,0,0,0,0,
0,0,-58,-2046,76,-6,-17,5,173,0,0,0,0,0,0,0,0,0,0,0,
0,0,-60,-2051,84,-9,-21,3,164,0,0,0,0,0,0,0,0,0,0,0,
0,0,-57,-2050,75,-6,-17,5,168,0,0,0,0,0,0,0,0,0,0,0,
0,0,-62,-2044,82,-4,-21,6,176,0,0,0,0,0,0,0,0,0,0,0,
0,0,-58,-2058,72,-5,-19,2,152,0,0,0,0,0,0,0,0,0,0,0,
0,0,-52,-2050,82,-7,-19,5,177,0,0,0,0,0,0,0,0,0,0,0,
0,0,-55,-2054,84,-7,-18,5,173,0,0,0,0,0,0,0,0,0,0,0,
0,0,-61,-2048,73,-10,-17,3,159,0,0,0,0,0,0,0,0,0,0,0,
0,0,-54,-2052,80,-6,-21,5,170,0,0,0,0,0,0,0,0,0,0,0,
0,0,-57,-2049,85,-5,-18,2,176,0,0,0,0,0,0,0,0,0,0,0,
0,0,-54,-2049,77,-5,-18,2,171,0,0,0,0,0,0,0,0,0,0,0,
0,0,-61,-2049,79,-7,-16,7,171,0,0,0,0,0,0,0,0,0,0,0,
0,0,-60,-2047,77,-6,-21,3,165,0,0,0,0,0,0,0,0,0,0,0,
0,0,-62,-2046,77,-8,-19,7,168,0,0,0,0,0,0,0,0,0,0,0,
0,0,-57,-2052,72,-8,-19,6,160,0,0,0,0,0,0,0,0,0,0,0,
0,0,-57,-2051,76,-8,-17,2,163,0,0,0,0,0,0,0,0,0,0,0,
0,0,-61,-2048,77,-12,-19,5,161,0,0,0,0,0,0,0,0,0,0,0,
0,0,-56,-2052,80,-7,-16,3,170,0,0,0,0,0,0,0,0,0,0,0,
0,0,-58,-2047,80,-8,-18,4,172,0,0,0,0,0,0,0,0,0,0,0,
0,0,-52,-2049,87,-6,-15,7,190,0,0,0,0,0,0,0,0,0,0,0,
0,0,-54,-2055,83,-8,-19,5,170,0,0,0,0,0,0,0,0,0,0,0,
0,0,-56,-2044,84,-6,-17,6,186,0,0,0,0,0,0,0,0,0,0,0,
0,0,-63,-2053,78,-7,-16,3,160,0,0,0,0,0,0,0,0,0,0,0,
0,0,-60,-2050,80,-7,-19,5,167,0,0,0,0,0,0,0,0,0,0,0,
0,0,-57,-2050,87,-3,-15,9,189,0,0,0,0,0,0,0,0,0,0,0,
0,0,-61,-2048,95,-8,-19,6,184,0,0,0,0,0,0,0,0,0,0,0,
0,0,-55,-2048,84,-10,-19,1,172,0,0,0,0,0,0,0,0,0,0,0,
0,0,-54,-2051,88,-9,-19,8,181,0,0,0,0,0,0,0,0,0,0,0,
0,0,-58,-2046,79,-7,-15,8,180,0,0,0,0,0,0,0,0,0,0,0,
0,0,-61,-2055,80,-10,-17,1,156,0,0,0,0,0,0,0,0,0,0,0,
0,0,-60,-2047,82,-6,-17,6,177,0,0,0,0,0,0,0,0,0,0,0,
0,0,-61,-2053,78,-7,-19,5,161,0,0,0,0,0,0,0,0,0,0,0,
0,0,-58,-2045,79,-7,-19,5,174,0,0,0,0,0,0,0,0,0,0,0,
0,0,-55,-2046,83,-6,-19,6,182,0,0,0,0,0,0,0,0,0,0,0,
0,0,-55,-2054,77,-6,-19,8,169,0,0,0,0,0,0,0,0,0,0,0,
0,0,-57,-2044,82,-7,-17,8,184,0,0,0,0,0,0,0,0,0,0,0,
0,0,-55,-2047,81,-7,-19,6,178,0,0,0,0,0,0,0,0,0,0,0,
0,0,-57,-2047,74,-6,-18,5,170,0,0,0,0,0,0,0,0,0,0,0,
0,0,-61,-2047,73,-6,-17,-1,159,0,0,0,0,0,0,0,0,0,0,0,
0,0,-57,-2055,79,-8,-18,2,161,0,0,0,0,0,0,0,0,0,0,0,
0,0,-58,-2044,80,-7,-15,4,179,0,0,0,0,0,0,0,0,0,0,0,
0,0,-54,-2046,77,-5,-21,3,173,0,0,0,0,0,0,0,0,0,0,0,
0,0,-59,-2044,75,-7,-17,3,170,0,0,0,0,0,0,0,0,0,0,0,
0,0,-61,-2058,86,-5,-19,8,169,0,0,0,0,0,0,0,0,0,0,0,
0,0,-54,-2051,81,-5,-16,6,179,0,0,0,0,0,0,0,0,0,0,0,
0,0,-55,-2048,75,-5,-22,7,171,0,0,0,0,0,0,0,0,0,0,0,
0,0,-62,-2042,75,-6,-18,5,171,0,0,0,0,0,0,0,0,0,0,0,
0,0,-53,-2045,74,-8,-19,4,172,0,0,0,0,0,0,0,0,0,0,0,
0,0,-53,-2051,77,-7,-16,4,172,0,0,0,0,0,0,0,0,0,0,0,
0,0,-55,-2050,78,-11,-22,4,162,0,0,0,0,0,0,0,0,0,0,0,
0,0,-58,-2046,83,-5,-19,5,179,0,0,0,0,0,0,0,0,0,0,0,
0,0,-60,-2049,86,-4,-19,6,178,0,0,0,0,0,0,0,0,0,0,0,
0,0,-56,-2050,81,-9,-17,4,171,0,0,0,0,0,0,0,0,0,0,0,
0,0,-51,-2052,82,-7,-18,8,180,0,0,0,0,0,0,0,0,0,0,0,
0,0,-53,-2047,79,-11,-19,6,174,0,0,0,0,0,0,0,0,0,0,0,
0,0,-61,-2050,77,-6,-15,7,170,0,0,0,0,0,0,0,0,0,0,0,
0,0,-53,-2043,76,-4,-16,4,183,0,0,0,0,0,0,0,0,0,0,0,
0,0,-55,-2043,86,-11,-19,6,183,0,0,0,0,0,0,0,0,0,0,0,
0,0,-53,-2042,88,-7,-16,4,193,0,0,0,0,0,0,0,0,0,0,0,
0,0,-55,-2047,73,-8,-20,6,168,0,0,0,0,0,0,0,0,0,0,0,
0,0,-56,-2047,74,-12,-18,6,166,0,0,0,0,0,0,0,0,0,0,0,
0,0,-52,-2050,82,-6,-15,8,185,0,0,0,0,0,0,0,0,0,0,0,
0,0,-59,-2043,80,-9,-20,4,172,0,0,0,0,0,0,0,0,0,0,0,
0,0,-51,-2052,80,-6,-18,4,175,0,0,0,0,0,0,0,0,0,0,0,
0,0,-57,-2052,80,-10,-20,3,162,0,0,0,0,0,0,0,0,0,0,0,
0,0,-57,-2044,78,-9,-18,6,175,0,0,0,0,0,0,0,0,0,0,0,
0,0,-61,-2050,76,-3,-19,8,169,0,0,0,0,0,0,0,0,0,0,0,
0,0,-58,-2048,75,-7,-18,3,166,0,0,0,0,0,0,0,0,0,0,0,
0,0,-54,-2052,81,-9,-20,8,172,0,0,0,0,0,0,0,0,0,0,0,
0,0,-59,-2048,81,-9,-19,7,172,0,0,0,0,0,0,0,0,0,0,0,
0,0,-51,-2048,75,-9,-18,2,170,0,0,0,0,0,0,0,0,0,0,0,
0,0,-51,-2048,75,-9,-18,2,170,0,0,0,0,0,0,0,0,0,0,0,
0,0,-60,-2043,80,-7,-17,2,174,0,0,0,0,0,0,0,0,0,0,0,
0,0,-65,-2051,83,-6,-18,7,168,0,0,0,0,0,0,0,0,0,0,0,
0,0,-62,-2048,79,-3,-17,5,173,0,0,0,0,0,0,0,0,0,0,0,
0,0,-55,-2045,79,-4,-17,6,183,0,0,0,0,0,0,0,0,0,0,0,
0,0,-57,-2048,80,-7,-17,6,176,0,0,0,0,0,0,0,0,0,0,0,
0,0,-57,-2048,80,-6,-20,8,176,0,0,0,0,0,0,0,0,0,0,0,
0,0,-56,-2052,78,-9,-17,6,168,0,0,0,0,0,0,0,0,0,0,0,
0,0,-58,-2054,77,-7,-19,4,161,0,0,0,0,0,0,0,0,0,0,0,
0,0,-53,-2051,78,-9,-17,6,172,0,0,0,0,0,0,0,0,0,0,0,
0,0,-58,-2048,81,-10,-18,6,172,0,0,0,0,0,0,0,0,0,0,0,
0,0,-58,-2048,81,-8,-18,4,172,0,0,0,0,0,0,0,0,0,0,0,
0,0,-59,-2050,82,-5,-17,5,174,0,0,0,0,0,0,0,0,0,0,0,
0,0,-59,-2051,81,-6,-18,5,170,0,0,0,0,0,0,0,0,0,0,0,
0,0,-59,-2052,73,-7,-20,4,157,0,0,0,0,0,0,0,0,0,0,0,
0,0,-57,-2050,75,-8,-17,5,166,0,0,0,0,0,0,0,0,0,0,0,
0,0,-54,-2050,79,-8,-21,6,170,0,0,0,0,0,0,0,0,0,0,0,
0,0,-68,-2055,88,-4,-18,5,166,0,0,0,0,0,0,0,0,0,0,0,
0,0,-60,-2049,76,-6,-19,3,163,0,0,0,0,0,0,0,0,0,0,0,
0,0,-56,-2052,72,-8,-17,6,163,0,0,0,0,0,0,0,0,0,0,0,
0,0,-64,-2046,74,-7,-16,7,167,0,0,0,0,0,0,0,0,0,0,0,
0,0,-59,-2047,72,-7,-20,5,163,0,0,0,0,0,0,0,0,0,0,0,
0,0,-53,-2049,78,-8,-17,2,171,0,0,0,0,0,0,0,0,0,0,0,
0,0,-45,-2050,80,-10,-18,2,177,0,0,0,0,0,0,0,0,0,0,0,
0,0,-57,-2045,80,-9,-17,10,181,0,0,0,0,0,0,0,0,0,0,0,
0,0,-57,-2045,80,-6,-19,7,179,0,0,0,0,0,0,0,0,0,0,0,
0,0,-59,-2046,86,-8,-17,3,178,0,0,0,0,0,0,0,0,0,0,0,
0,0,-55,-2048,78,-8,-17,6,175,0,0,0,0,0,0,0,0,0,0,0,
0,0,-60,-2051,80,-7,-14,7,173,0,0,0,0,0,0,0,0,0,0,0,
0,0,-62,-2054,85,-8,-22,4,161,0,0,0,0,0,0,0,0,0,0,0,
0,0,-52,-2054,80,-8,-16,3,171,0,0,0,0,0,0,0,0,0,0,0,
0,0,-52,-2045,87,-7,-18,7,191,0,0,0,0,0,0,0,0,0,0,0,
0,0,-57,-2052,84,-6,-19,7,175,0,0,0,0,0,0,0,0,0,0,0,
0,0,-57,-2047,87,-8,-19,3,178,0,0,0,0,0,0,0,0,0,0,0,
0,0,-60,-2048,84,-8,-21,3,169,0,0,0,0,0,0,0,0,0,0,0,
0,0,-58,-2048,81,-8,-17,7,176,0,0,0,0,0,0,0,0,0,0,0,
0,0,-55,-2048,87,-9,-18,9,185,0,0,0,0,0,0,0,0,0,0,0,
0,0,-53,-2051,79,-10,-20,3,166,0,0,0,0,0,0,0,0,0,0,0,
0,0,-57,-2044,79,-7,-20,7,177,0,0,0,0,0,0,0,0,0,0,0,
0,0,-61,-2051,81,-8,-20,5,164,0,0,0,0,0,0,0,0,0,0,0,
0,0,-56,-2047,82,-8,-16,4,178,0,0,0,0,0,0,0,0,0,0,0,
0,0,-60,-2057,79,-7,-17,4,160,0,0,0,0,0,0,0,0,0,0,0,
0,0,-54,-2042,81,-5,-19,8,188,0,0,0,0,0,0,0,0,0,0,0,
0,0,-56,-2046,81,-7,-16,5,180,0,0,0,0,0,0,0,0,0,0,0,
0,0,-55,-2053,81,-7,-21,8,171,0,0,0,0,0,0,0,0,0,0,0,
0,0,-56,-2045,80,-6,-17,5,180,0,0,0,0,0,0,0,0,0,0,0,
0,0,-51,-2047,80,-6,-16,7,186,0,0,0,0,0,0,0,0,0,0,0,
0,0,-59,-2047,79,-7,-19,5,171,0,0,0,0,0,0,0,0,0,0,0,
0,0,-52,-2049,83,-10,-16,5,179,0,0,0,0,0,0,0,0,0,0,0,
0,0,-54,-2049,76,-10,-22,5,164,0,0,0,0,0,0,0,0,0,0,0,
0,0,-59,-2049,81,-5,-21,8,173,0,0,0,0,0,0,0,0,0,0,0,
0,0,-57,-2049,76,-6,-18,7,171,0,0,0,0,0,0,0,0,0,0,0,
0,0,-61,-2049,82,-6,-18,4,170,0,0,0,0,0,0,0,0,0,0,0,
0,0,-60,-2046,77,-6,-17,6,173,0,0,0,0,0,0,0,0,0,0,0,
0,0,-52,-2053,80,-10,-18,4,169,0,0,0,0,0,0,0,0,0,0,0,
0,0,-67,-2043,70,-6,-16,9,166,0,0,0,0,0,0,0,0,0,0,0,
0,0,-62,-2054,80,-4,-21,6,163,0,0,0,0,0,0,0,0,0,0,0,
0,0,-64,-2055,77,-5,-16,5,160,0,0,0,0,0,0,0,0,0,0,0,
0,0,-58,-2044,75,-8,-21,7,170,0,0,0,0,0,0,0,0,0,0,0,
0,0,-61,-2051,74,-9,-16,6,161,0,0,0,0,0,0,0,0,0,0,0,
0,0,-53,-2048,78,-8,-16,7,179,0,0,0,0,0,0,0,0,0,0,0,
0,0,-63,-2046,74,-7,-18,5,164,0,0,0,0,0,0,0,0,0,0,0,
0,0,-59,-2050,81,-8,-14,5,173,0,0,0,0,0,0,0,0,0,0,0,
0,0,-59,-2056,81,-9,-18,4,161,0,0,0,0,0,0,0,0,0,0,0,
0,0,-55,-2047,79,-8,-20,4,172,0,0,0,0,0,0,0,0,0,0,0,
0,0,-59,-2057,84,-6,-15,5,170,0,0,0,0,0,0,0,0,0,0,0,
0,0,-59,-2051,77,-12,-19,2,156,0,0,0,0,0,0,0,0,0,0,0,
0,0,-53,-2045,86,-8,-21,5,183,0,0,0,0,0,0,0,0,0,0,0,
0,0,-61,-2043,80,-6,-12,3,180,0,0,0,0,0,0,0,0,0,0,0,
0,0,-60,-2052,83,-6,-17,8,174,0,0,0,0,0,0,0,0,0,0,0,
0,0,-59,-2053,82,-6,-16,5,171,0,0,0,0,0,0,0,0,0,0,0,
0,0,-63,-2048,84,-7,-17,6,174,0,0,0,0,0,0,0,0,0,0,0,
0,0,-56,-2049,86,-8,-18,7,180,0,0,0,0,0,0,0,0,0,0,0,
0,0,-58,-2042,76,-11,-18,5,171,0,0,0,0,0,0,0,0,0,0,0,
0,0,-58,-2057,77,-7,-21,8,160,0,0,0,0,0,0,0,0,0,0,0,
0,0,-60,-2044,79,-10,-18,6,172,0,0,0,0,0,0,0,0,0,0,0,
0,0,-56,-2042,75,-10,-18,3,171,0,0,0,0,0,0,0,0,0,0,0,
0,0,-57,-2046,78,-8,-18,4,172,0,0,0,0,0,0,0,0,0,0,0,
0,0,-56,-2045,81,-6,-19,9,183,0,0,0,0,0,0,0,0,0,0,0,
0,0,-57,-2049,80,-9,-16,5,172,0,0,0,0,0,0,0,0,0,0,0,
0,0,-56,-2046,81,-4,-17,5,182,0,0,0,0,0,0,0,0,0,0,0,
0,0,-62,-2053,72,-9,-19,2,149,0,0,0,0,0,0,0,0,0,0,0,
0,0,-53,-2048,79,-11,-19,4,171,0,0,0,0,0,0,0,0,0,0,0,
0,0,-55,-2047,76,-9,-21,5,168,0,0,0,0,0,0,0,0,0,0,0,
0,0,-54,-2053,83,-8,-19,6,173,0,0,0,0,0,0,0,0,0,0,0,
0,0,-61,-2056,77,-7,-20,4,155,0,0,0,0,0,0,0,0,0,0,0,
0,0,-57,-2042,77,-10,-18,6,175,0,0,0,0,0,0,0,0,0,0,0,
0,0,-60,-2044,79,-7,-21,4,170,0,0,0,0,0,0,0,0,0,0,0,
0,0,-59,-2047,81,-5,-16,4,177,0,0,0,0,0,0,0,0,0,0,0,
0,0,-63,-2054,77,-5,-17,2,158,0,0,0,0,0,0,0,0,0,0,0,
0,0,-56,-2047,79,-6,-16,8,181,0,0,0,0,0,0,0,0,0,0,0,
0,0,-52,-2051,74,-8,-18,5,168,0,0,0,0,0,0,0,0,0,0,0,
0,0,-65,-2050,80,-9,-16,7,165,0,0,0,0,0,0,0,0,0,0,0,
0,0,-56,-2048,77,-9,-18,5,170,0,0,0,0,0,0,0,0,0,0,0,
0,0,-52,-2052,83,-8,-15,6,180,0,0,0,0,0,0,0,0,0,0,0,
0,0,-61,-2042,77,-10,-17,6,172,0,0,0,0,0,0,0,0,0,0,0,
0,0,-59,-2052,82,-8,-20,5,166,0,0,0,0,0,0,0,0,0,0,0,
0,0,-59,-2050,81,-8,-18,5,169,0,0,0,0,0,0,0,0,0,0,0,
0,0,-61,-2047,77,-9,-18,2,163,0,0,0,0,0,0,0,0,0,0,0,
0,0,-55,-2046,79,-10,-21,7,173,0,0,0,0,0,0,0,0,0,0,0,
0,0,-61,-2053,77,-5,-20,2,158,0,0,0,0,0,0,0,0,0,0,0,
0,0,-55,-2051,83,-6,-19,8,178,0,0,0,0,0,0,0,0,0,0,0,
0,0,-59,-2039,80,-9,-17,7,182,0,0,0,0,0,0,0,0,0,0,0,
0,0,-64,-2052,80,-10,-18,3,157,0,0,0,0,0,0,0,0,0,0,0,
0,0,-50,-2049,75,-9,-19,8,174,0,0,0,0,0,0,0,0,0,0,0,
0,0,-57,-2048,82,-6,-14,8,184,0,0,0,0,0,0,0,0,0,0,0,
0,0,-56,-2050,81,-7,-17,6,175,0,0,0,0,0,0,0,0,0,0,0,
0,0,-56,-2045,81,-5,-16,3,181,0,0,0,0,0,0,0,0,0,0,0,
0,0,-62,-2050,83,-9,-17,6,169,0,0,0,0,0,0,0,0,0,0,0,
0,0,-65,-2046,80,-6,-16,9,175,0,0,0,0,0,0,0,0,0,0,0,
0,0,-65,-2046,80,-6,-16,9,175,0,0,0,0,0,0,0,0,0,0,0,
0,0,-57,-2042,84,-11,-20,4,177,0,0,0,0,0,0,0,0,0,0,0,
0,0,-52,-2042,78,-11,-18,6,180,0,0,0,0,0,0,0,0,0,0,0,
0,0,-53,-2056,80,-8,-20,6,167,0,0,0,0,0,0,0,0,0,0,0,
0,0,-56,-2056,84,-6,-17,5,172,0,0,0,0,0,0,0,0,0,0,0,
0,0,-57,-2044,75,-10,-18,5,170,0,0,0,0,0,0,0,0,0,0,0,
0,0,-56,-2047,78,-9,-16,6,175,0,0,0,0,0,0,0,0,0,0,0,
0,0,-56,-2047,78,-9,-20,6,171,0,0,0,0,0,0,0,0,0,0,0,
0,0,-51,-2047,79,-6,-17,4,181,0,0,0,0,0,0,0,0,0,0,0,
0,0,-60,-2043,71,-6,-18,5,168,0,0,0,0,0,0,0,0,0,0,0,
0,0,-59,-2048,74,-6,-18,9,171,0,0,0,0,0,0,0,0,0,0,0,
0,0,-55,-2049,76,-7,-15,8,176,0,0,0,0,0,0,0,0,0,0,0,
0,0,-56,-2058,74,-7,-15,8,164,0,0,0,0,0,0,0,0,0,0,0,
0,0,-57,-2044,76,-10,-18,7,173,0,0,0,0,0,0,0,0,0,0,0,
0,0,-61,-2047,73,-8,-18,8,166,0,0,0,0,0,0,0,0,0,0,0,
0,0,-53,-2048,79,-9,-19,8,177,0,0,0,0,0,0,0,0,0,0,0,
0,0,-60,-2050,79,-9,-20,8,166,0,0,0,0,0,0,0,0,0,0,0,
0,0,-58,-2049,75,-5,-18,4,167,0,0,0,0,0,0,0,0,0,0,0,
0,0,-55,-2050,82,-8,-18,7,176,0,0,0,0,0,0,0,0,0,0,0,
0,0,-56,-2051,75,-10,-19,4,161,0,0,0,0,0,0,0,0,0,0,0,
0,0,-54,-2044,84,-6,-17,2,184,0,0,0,0,0,0,0,0,0,0,0,
0,0,-61,-2044,81,-6,-16,5,178,0,0,0,0,0,0,0,0,0,0,0,
0,0,-62,-2056,78,-9,-18,6,157,0,0,0,0,0,0,0,0,0,0,0,
0,0,-57,-2047,77,-7,-19,7,173,0,0,0,0,0,0,0,0,0,0,0,
0,0,-59,-2041,79,-8,-15,9,184,0,0,0,0,0,0,0,0,0,0,0,
0,0,-60,-2049,80,-5,-17,4,171,0,0,0,0,0,0,0,0,0,0,0,
0,0,-60,-2053,84,-8,-19,6,168,0,0,0,0,0,0,0,0,0,0,0,
0,0,-60,-2051,82,-9,-16,8,172,0,0,0,0,0,0,0,0,0,0,0,
0,0,-59,-2050,82,-7,-18,5,171,0,0,0,0,0,0,0,0,0,0,0,
0,0,-57,-2049,85,-7,-18,6,178,0,0,0,0,0,0,0,0,0,0,0,
0,0,-61,-2055,82,-9,-18,6,163,0,0,0,0,0,0,0,0,0,0,0,
0,0,-57,-2052,87,-6,-16,4,178,0,0,0,0,0,0,0,0,0,0,0,
0,0,-61,-2044,76,-5,-19,4,170,0,0,0,0,0,0,0,0,0,0,0,
0,0,-55,-2049,78,-7,-17,3,171,0,0,0,0,0,0,0,0,0,0,0,
0,0,-60,-2051,78,-7,-21,6,163,0,0,0,0,0,0,0,0,0,0,0,
0,0,-57,-2049,83,-8,-18,4,173,0,0,0,0,0,0,0,0,0,0,0,
0,0,-62,-2046,78,-7,-19,7,170,0,0,0,0,0,0,0,0,0,0,0,
0,0,-58,-2051,80,-5,-19,10,175,0,0,0,0,0,0,0,0,0,0,0,
0,0,-55,-2048,79,-6,-19,7,177,0,0,0,0,0,0,0,0,0,0,0,
0,0,-62,-2045,78,-8,-15,5,172,0,0,0,0,0,0,0,0,0,0,0,
0,0,-60,-2042,81,-8,-19,4,175,0,0,0,0,0,0,0,0,0,0,0,
0,0,-58,-2047,79,-7,-20,8,174,0,0,0,0,0,0,0,0,0,0,0,
0,0,-55,-2052,80,-6,-20,7,172,0,0,0,0,0,0,0,0,0,0,0,
0,0,-60,-2048,77,-5,-19,8,172,0,0,0,0,0,0,0,0,0,0,0,
0,0,-55,-2051,75,-7,-18,4,166,0,0,0,0,0,0,0,0,0,0,0,
0,0,-54,-2046,78,-8,-20,8,177,0,0,0,0,0,0,0,0,0,0,0,
0,0,-56,-2052,73,-10,-17,4,160,0,0,0,0,0,0,0,0,0,0,0,
0,0,-60,-2047,75,-5,-17,6,171,0,0,0,0,0,0,0,0,0,0,0,
0,0,-56,-2053,84,-10,-18,5,170,0,0,0,0,0,0,0,0,0,0,0,
0,0,-57,-2046,73,-3,-17,3,172,0,0,0,0,0,0,0,0,0,0,0,
0,0,-58,-2054,79,-5,-19,8,169,0,0,0,0,0,0,0,0,0,0,0,
0,0,-63,-2043,81,-9,-17,1,169,0,0,0,0,0,0,0,0,0,0,0,
0,0,-60,-2049,74,-8,-17,5,163,0,0,0,0,0,0,0,0,0,0,0,
0,0,-49,-2046,85,-11,-17,6,187,0,0,0,0,0,0,0,0,0,0,0,
0,0,-55,-2045,81,-6,-18,6,182,0,0,0,0,0,0,0,0,0,0,0,
0,0,-60,-2049,85,-4,-18,5,177,0,0,0,0,0,0,0,0,0,0,0,
0,0,-57,-2048,81,-6,-18,3,174,0,0,0,0,0,0,0,0,0,0,0,
0,0,-57,-2050,80,-10,-17,5,169,0,0,0,0,0,0,0,0,0,0,0,
0,0,-60,-2048,77,-8,-19,5,166,0,0,0,0,0,0,0,0,0,0,0,
0,0,-59,-2049,80,-9,-16,4,169,0,0,0,0,0,0,0,0,0,0,0,
0,0,-59,-2048,78,-8,-22,4,164,0,0,0,0,0,0,0,0,0,0,0,
0,0,-60,-2040,81,-10,-19,7,178,0,0,0,0,0,0,0,0,0,0,0,
0,0,-67,-2048,75,-11,-18,4,154,0,0,0,0,0,0,0,0,0,0,0,
0,0,-57,-2045,75,-4,-18,4,174,0,0,0,0,0,0,0,0,0,0,0,
0,0,-57,-2057,77,-5,-19,6,163,0,0,0,0,0,0,0,0,0,0,0,
0,0,-54,-2047,71,-6,-17,5,171,0,0,0,0,0,0,0,0,0,0,0,
0,0,-52,-2050,77,-6,-18,6,175,0,0,0,0,0,0,0,0,0,0,0,
0,0,-57,-2053,81,-6,-17,6,172,0,0,0,0,0,0,0,0,0,0,0,
0,0,-56,-2040,85,-8,-16,7,191,0,0,0,0,0,0,0,0,0,0,0,
0,0,-52,-2047,78,-9,-16,9,182,0,0,0,0,0,0,0,0,0,0,0,
0,0,-56,-2054,80,-9,-20,6,165,0,0,0,0,0,0,0,0,0,0,0,
0,0,-60,-2055,87,-9,-19,1,163,0,0,0,0,0,0,0,0,0,0,0,
0,0,-60,-2051,75,-8,-21,6,159,0,0,0,0,0,0,0,0,0,0,0,
0,0,-59,-2051,78,-6,-16,8,172,0,0,0,0,0,0,0,0,0,0,0,
0,0,-58,-2051,77,-6,-20,7,167,0,0,0,0,0,0,0,0,0,0,0,
0,0,-57,-2047,84,-7,-19,7,180,0,0,0,0,0,0,0,0,0,0,0,
0,0,-58,-2044,79,-4,-21,7,178,0,0,0,0,0,0,0,0,0,0,0,
0,0,-57,-2044,88,-7,-18,3,184,0,0,0,0,0,0,0,0,0,0,0,
0,0,-53,-2047,80,-3,-20,6,182,0,0,0,0,0,0,0,0,0,0,0,
0,0,-53,-2044,69,-9,-21,2,163,0,0,0,0,0,0,0,0,0,0,0,
0,0,-60,-2051,74,-9,-16,9,165,0,0,0,0,0,0,0,0,0,0,0,
0,0,-49,-2051,77,-5,-19,3,174,0,0,0,0,0,0,0,0,0,0,0,
0,0,-64,-2050,86,-7,-20,4,167,0,0,0,0,0,0,0,0,0,0,0,
0,0,-58,-2049,78,-7,-16,8,174,0,0,0,0,0,0,0,0,0,0,0,
0,0,-60,-2054,77,-9,-19,7,160,0,0,0,0,0,0,0,0,0,0,0,
0,0,-55,-2042,83,-7,-19,4,183,0,0,0,0,0,0,0,0,0,0,0,
0,0,-59,-2052,79,-9,-17,4,164,0,0,0,0,0,0,0,0,0,0,0,
0,0,-56,-2049,87,-9,-19,4,176,0,0,0,0,0,0,0,0,0,0,0,
0,0,-56,-2052,76,-6,-19,5,166,0,0,0,0,0,0,0,0,0,0,0,
0,0,-61,-2046,85,-6,-17,7,181,0,0,0,0,0,0,0,0,0,0,0,
0,0,-51,-2048,83,-7,-15,4,185,0,0,0,0,0,0,0,0,0,0,0,
0,0,-62,-2049,80,-6,-19,8,170,0,0,0,0,0,0,0,0,0,0,0,
0,0,-60,-2055,80,-8,-18,3,160,0,0,0,0,0,0,0,0,0,0,0,
0,0,-59,-2049,78,-7,-15,4,170,0,0,0,0,0,0,0,0,0,0,0,
0,0,-58,-2052,75,-6,-17,4,164,0,0,0,0,0,0,0,0,0,0,0,
0,0,-54,-2049,80,-8,-18,4,173,0,0,0,0,0,0,0,0,0,0,0,
0,0,-59,-2041,74,-7,-17,8,177,0,0,0,0,0,0,0,0,0,0,0,
0,0,-63,-2053,83,-9,-17,2,161,0,0,0,0,0,0,0,0,0,0,0,
0,0,-63,-2051,81,-8,-18,1,160,0,0,0,0,0,0,0,0,0,0,0,
0,0,-56,-2048,79,-11,-19,6,170,0,0,0,0,0,0,0,0,0,0,0,
0,0,-55,-2048,77,-7,-19,5,172,0,0,0,0,0,0,0,0,0,0,0,
0,0,-58,-2045,81,-5,-18,9,183,0,0,0,0,0,0,0,0,0,0,0,
0,0,-56,-2051,79,-9,-18,3,166,0,0,0,0,0,0,0,0,0,0,0,
0,0,-59,-2048,75,-7,-19,6,167,0,0,0,0,0,0,0,0,0,0,0,
0,0,-53,-2052,76,-6,-20,5,168,0,0,0,0,0,0,0,0,0,0,0,
0,0,-58,-2045,74,-7,-16,3,170,0,0,0,0,0,0,0,0,0,0,0,
0,0,-52,-2048,84,-8,-19,7,183,0,0,0,0,0,0,0,0,0,0,0,
0,0,-55,-2046,77,-5,-20,5,175,0,0,0,0,0,0,0,0,0,0,0,
0,0,-55,-2046,77,-5,-20,5,175,0,0,0,0,0,0,0,0,0,0,0,
0,0,-58,-2042,76,-6,-18,7,178,0,0,0,0,0,0,0,0,0,0,0,
0,0,-59,-2049,83,-5,-18,5,175,0,0,0,0,0,0,0,0,0,0,0,
0,0,-63,-2043,91,-7,-18,8,187,0,0,0,0,0,0,0,0,0,0,0,
0,0,-63,-2043,91,-7,-18,8,187,0,0,0,0,0,0,0,0,0,0,0,
0,0,-57,-2048,76,-11,-19,5,165,0,0,0,0,0,0,0,0,0,0,0,
0,0,-54,-2046,85,-9,-17,4,182,0,0,0,0,0,0,0,0,0,0,0,
0,0,-51,-2047,81,-5,-20,5,182,0,0,0,0,0,0,0,0,0,0,0,
0,0,-56,-2045,84,-8,-20,2,176,0,0,0,0,0,0,0,0,0,0,0,
0,0,-62,-2050,72,-5,-20,5,158,0,0,0,0,0,0,0,0,0,0,0,
0,0,-62,-2050,72,-8,-17,4,157,0,0,0,0,0,0,0,0,0,0,0,
0,0,-56,-2043,78,-8,-18,4,176,0,0,0,0,0,0,0,0,0,0,0,
0,0,-55,-2052,80,-8,-18,6,171,0,0,0,0,0,0,0,0,0,0,0,
0,0,-55,-2046,76,-8,-18,6,174,0,0,0,0,0,0,0,0,0,0,0,
0,0,-56,-2051,80,-11,-19,4,165,0,0,0,0,0,0,0,0,0,0,0,
0,0,-58,-2049,81,-11,-19,4,166,0,0,0,0,0,0,0,0,0,0,0,
0,0,-57,-2045,74,-7,-18,8,174,0,0,0,0,0,0,0,0,0,0,0,
0,0,-62,-2045,81,-6,-20,7,174,0,0,0,0,0,0,0,0,0,0,0,
0,0,-59,-2048,75,-8,-16,8,171,0,0,0,0,0,0,0,0,0,0,0,
0,0,-60,-2044,83,-12,-20,7,173,0,0,0,0,0,0,0,0,0,0,0,
0,0,-62,-2052,80,-9,-16,4,163,0,0,0,0,0,0,0,0,0,0,0,
0,0,-59,-2041,75,-9,-18,5,172,0,0,0,0,0,0,0,0,0,0,0,
0,0,-57,-2049,82,-9,-20,8,173,0,0,0,0,0,0,0,0,0,0,0,
0,0,-55,-2052,82,-9,-19,4,169,0,0,0,0,0,0,0,0,0,0,0,
0,0,-60,-2058,72,-8,-19,5,150,0,0,0,0,0,0,0,0,0,0,0,
0,0,-56,-2046,74,-7,-19,5,170,0,0,0,0,0,0,0,0,0,0,0,
0,0,-58,-2053,85,-6,-17,4,173,0,0,0,0,0,0,0,0,0,0,0,
0,0,-58,-2054,78,-9,-18,3,160,0,0,0,0,0,0,0,0,0,0,0,
0,0,-60,-2053,79,-10,-16,5,163,0,0,0,0,0,0,0,0,0,0,0,
0,0,-56,-2048,83,-10,-17,2,173,0,0,0,0,0,0,0,0,0,0,0,
0,0,-58,-2050,80,-9,-16,5,170,0,0,0,0,0,0,0,0,0,0,0,
0,0,-61,-2051,84,-8,-15,3,170,0,0,0,0,0,0,0,0,0,0,0,
0,0,-55,-2043,82,-10,-19,6,180,0,0,0,0,0,0,0,0,0,0,0,
0,0,-61,-2045,79,-14,-17,7,168,0,0,0,0,0,0,0,0,0,0,0,
0,0,-60,-2054,74,-10,-18,5,155,0,0,0,0,0,0,0,0,0,0,0,
0,0,-56,-2049,69,-9,-17,1,157,0,0,0,0,0,0,0,0,0,0,0,
0,0,-56,-2048,77,-8,-16,6,174,0,0,0,0,0,0,0,0,0,0,0,
0,0,-52,-2052,82,-8,-17,4,175,0,0,0,0,0,0,0,0,0,0,0,
0,0,-58,-2051,83,-11,-17,3,167,0,0,0,0,0,0,0,0,0,0,0,
0,0,-54,-2051,81,-8,-19,4,171,0,0,0,0,0,0,0,0,0,0,0,
0,0,-59,-2044,85,-7,-19,7,182,0,0,0,0,0,0,0,0,0,0,0,
0,0,-57,-2051,74,-6,-21,8,165,0,0,0,0,0,0,0,0,0,0,0,
0,0,-53,-2049,72,-4,-18,4,170,0,0,0,0,0,0,0,0,0,0,0,
0,0,-56,-2050,71,-5,-19,3,162,0,0,0,0,0,0,0,0,0,0,0,
0,0,-59,-2052,79,-6,-16,6,170,0,0,0,0,0,0,0,0,0,0,0,
0,0,-58,-2046,73,-10,-19,6,165,0,0,0,0,0,0,0,0,0,0,0,
0,0,-58,-2052,76,-10,-19,4,159,0,0,0,0,0,0,0,0,0,0,0,
0,0,-61,-2058,74,-7,-18,5,153,0,0,0,0,0,0,0,0,0,0,0,
0,0,-67,-2054,73,-7,-19,5,149,0,0,0,0,0,0,0,0,0,0,0,
0,0,-57,-2043,68,-7,-20,6,166,0,0,0,0,0,0,0,0,0,0,0,
0,0,-58,-2039,67,-7,-18,3,167,0,0,0,0,0,0,0,0,0,0,0,
0,0,-61,-2040,74,-8,-20,3,167,0,0,0,0,0,0,0,0,0,0,0,
0,0,-54,-2041,80,-6,-17,8,189,0,0,0,0,0,0,0,0,0,0,0,
0,0,-55,-2044,84,-6,-21,4,181,0,0,0,0,0,0,0,0,0,0,0,
0,0,-55,-2046,87,-4,-17,5,189,0,0,0,0,0,0,0,0,0,0,0,
0,0,-57,-2045,88,-9,-18,4,182,0,0,0,0,0,0,0,0,0,0,0,
0,0,-47,-2045,74,-9,-22,5,175,0,0,0,0,0,0,0,0,0,0,0,
0,0,-49,-2056,69,-9,-17,8,164,0,0,0,0,0,0,0,0,0,0,0,
0,0,-52,-2057,75,-7,-17,6,166,0,0,0,0,0,0,0,0,0,0,0,
0,0,-51,-2045,75,-6,-21,5,176,0,0,0,0,0,0,0,0,0,0,0,
0,0,-52,-2051,76,-3,-19,5,174,0,0,0,0,0,0,0,0,0,0,0,
0,0,-62,-2051,79,-8,-17,5,164,0,0,0,0,0,0,0,0,0,0,0,
0,0,-66,-2050,79,-6,-16,5,164,0,0,0,0,0,0,0,0,0,0,0,
0,0,-64,-2047,82,-7,-20,3,166,0,0,0,0,0,0,0,0,0,0,0,
0,0,-67,-2048,80,-5,-17,8,170,0,0,0,0,0,0,0,0,0,0,0,
0,0,-72,-2053,85,-8,-20,5,155,0,0,0,0,0,0,0,0,0,0,0,
0,0,-65,-2040,80,-9,-17,8,176,0,0,0,0,0,0,0,0,0,0,0,
0,0,-54,-2048,81,-6,-17,4,179,0,0,0,0,0,0,0,0,0,0,0,
0,0,-57,-2054,80,-9,-16,7,169,0,0,0,0,0,0,0,0,0,0,0,
0,0,-55,-2049,83,-7,-21,8,177,0,0,0,0,0,0,0,0,0,0,0,
0,0,-53,-2046,81,-4,-21,5,181,0,0,0,0,0,0,0,0,0,0,0,
0,0,-63,-2049,68,-9,-18,4,151,0,0,0,0,0,0,0,0,0,0,0,
0,0,-58,-2054,76,-7,-17,9,167,0,0,0,0,0,0,0,0,0,0,0,
0,0,-62,-2049,76,-7,-17,5,164,0,0,0,0,0,0,0,0,0,0,0,
0,0,-56,-2046,80,-7,-20,3,173,0,0,0,0,0,0,0,0,0,0,0,
0,0,-57,-2050,87,-6,-20,7,179,0,0,0,0,0,0,0,0,0,0,0,
0,0,-56,-2053,85,-11,-18,8,173,0,0,0,0,0,0,0,0,0,0,0,
0,0,-53,-2043,87,-11,-17,5,187,0,0,0,0,0,0,0,0,0,0,0,
0,0,-56,-2050,77,-9,-20,8,168,0,0,0,0,0,0,0,0,0,0,0,
0,0,-54,-2048,80,-7,-15,5,180,0,0,0,0,0,0,0,0,0,0,0,
0,0,-54,-2049,77,-8,-15,6,175,0,0,0,0,0,0,0,0,0,0,0,
0,0,-61,-2049,86,-8,-15,5,176,0,0,0,0,0,0,0,0,0,0,0,
0,0,-47,-2054,87,-11,-16,3,180,0,0,0,0,0,0,0,0,0,0,0,
0,0,-59,-2058,80,-7,-18,9,165,0,0,0,0,0,0,0,0,0,0,0,
0,0,-56,-2050,84,-8,-16,6,178,0,0,0,0,0,0,0,0,0,0,0,
0,0,-59,-2049,78,-9,-18,6,167,0,0,0,0,0,0,0,0,0,0,0,
0,0,-63,-2055,72,-6,-17,1,150,0,0,0,0,0,0,0,0,0,0,0,
0,0,-61,-2042,76,-8,-15,7,176,0,0,0,0,0,0,0,0,0,0,0,
0,0,-57,-2050,74,-7,-19,3,162,0,0,0,0,0,0,0,0,0,0,0,
0,0,-57,-2049,81,-9,-20,3,167,0,0,0,0,0,0,0,0,0,0,0,
0,0,-57,-2052,72,-8,-17,3,159,0,0,0,0,0,0,0,0,0,0,0,
0,0,-57,-2050,72,-7,-19,2,159,0,0,0,0,0,0,0,0,0,0,0,
0,0,-61,-2050,73,-7,-22,5,156,0,0,0,0,0,0,0,0,0,0,0,
0,0,-55,-2044,80,-11,-22,5,172,0,0,0,0,0,0,0,0,0,0,0,
0,0,-60,-2051,73,-9,-19,5,157,0,0,0,0,0,0,0,0,0,0,0,
0,0,-53,-2049,83,-9,-21,3,172,0,0,0,0,0,0,0,0,0,0,0,
0,0,-54,-2045,78,-7,-22,3,172,0,0,0,0,0,0,0,0,0,0,0,
0,0,-53,-2045,77,-10,-18,6,176,0,0,0,0,0,0,0,0,0,0,0,
0,0,-56,-2046,77,-7,-18,8,177,0,0,0,0,0,0,0,0,0,0,0,
0,0,-51,-2045,76,-5,-19,6,181,0,0,0,0,0,0,0,0,0,0,0,
0,0,-53,-2049,73,-7,-18,7,171,0,0,0,0,0,0,0,0,0,0,0,
0,0,-53,-2047,77,-8,-20,3,171,0,0,0,0,0,0,0,0,0,0,0,
0,0,-52,-2052,71,-9,-18,4,162,0,0,0,0,0,0,0,0,0,0,0,
0,0,-52,-2051,78,-4,-18,6,177,0,0,0,0,0,0,0,0,0,0,0,
0,0,-57,-2047,76,-8,-18,3,168,0,0,0,0,0,0,0,0,0,0,0,
0,0,-57,-2050,80,-10,-17,2,166,0,0,0,0,0,0,0,0,0,0,0,
0,0,-58,-2054,80,-7,-17,5,167,0,0,0,0,0,0,0,0,0,0,0,
0,0,-59,-2047,80,-10,-19,8,172,0,0,0,0,0,0,0,0,0,0,0,
0,0,-51,-2049,82,-9,-17,6,180,0,0,0,0,0,0,0,0,0,0,0,
0,0,-51,-2049,82,-9,-17,6,180,0,0,0,0,0,0,0,0,0,0,0,
0,0,-56,-2048,82,-7,-15,6,181,0,0,0,0,0,0,0,0,0,0,0,
0,0,-55,-2050,77,-7,-19,5,169,0,0,0,0,0,0,0,0,0,0,0,
0,0,-54,-2045,70,-11,-15,4,168,0,0,0,0,0,0,0,0,0,0,0,
0,0,-63,-2049,74,-5,-18,7,164,0,0,0,0,0,0,0,0,0,0,0,
0,0,-63,-2049,74,-9,-17,6,160,0,0,0,0,0,0,0,0,0,0,0,
0,0,-62,-2044,89,-8,-19,6,181,0,0,0,0,0,0,0,0,0,0,0,
0,0,-60,-2047,85,-5,-18,7,181,0,0,0,0,0,0,0,0,0,0,0,
0,0,-59,-2042,85,-5,-17,7,188,0,0,0,0,0,0,0,0,0,0,0,
0,0,-59,-2042,85,-5,-17,5,186,0,0,0,0,0,0,0,0,0,0,0,
0,0,-57,-2052,87,-5,-18,9,182,0,0,0,0,0,0,0,0,0,0,0,
0,0,-53,-2049,86,-8,-17,3,180,0,0,0,0,0,0,0,0,0,0,0,
0,0,-60,-2045,84,-9,-19,7,177,0,0,0,0,0,0,0,0,0,0,0,
0,0,-62,-2042,80,-3,-18,8,182,0,0,0,0,0,0,0,0,0,0,0,
0,0,-56,-2050,80,-7,-17,6,174,0,0,0,0,0,0,0,0,0,0,0,
0,0,-62,-2048,83,-7,-17,3,171,0,0,0,0,0,0,0,0,0,0,0,
0,0,-56,-2046,89,-7,-20,8,187,0,0,0,0,0,0,0,0,0,0,0,
0,0,-61,-2047,86,-5,-16,4,180,0,0,0,0,0,0,0,0,0,0,0,
0,0,-52,-2052,84,-7,-18,4,177,0,0,0,0,0,0,0,0,0,0,0,
0,0,-62,-2058,83,-10,-17,6,160,0,0,0,0,0,0,0,0,0,0,0,
0,0,-65,-2053,82,-9,-20,4,157,0,0,0,0,0,0,0,0,0,0,0,
0,0,-62,-2052,78,-5,-21,5,161,0,0,0,0,0,0,0,0,0,0,0,
0,0,-60,-2050,79,-10,-16,4,165,0,0,0,0,0,0,0,0,0,0,0,
0,0,-63,-2048,89,-7,-20,7,177,0,0,0,0,0,0,0,0,0,0,0,
0,0,-60,-2049,85,-9,-19,6,172,0,0,0,0,0,0,0,0,0,0,0,
0,0,-60,-2045,80,-10,-20,2,166,0,0,0,0,0,0,0,0,0,0,0,
0,0,-57,-2050,81,-7,-18,4,171,0,0,0,0,0,0,0,0,0,0,0,
0,0,-56,-2051,72,-7,-19,5,162,0,0,0,0,0,0,0,0,0,0,0,
0,0,-57,-2049,80,-6,-20,8,174,0,0,0,0,0,0,0,0,0,0,0,
0,0,-57,-2051,84,-6,-19,5,174,0,0,0,0,0,0,0,0,0,0,0,
0,0,-62,-2056,77,-6,-21,5,155,0,0,0,0,0,0,0,0,0,0,0,
0,0,-51,-2044,76,-6,-19,3,178,0,0,0,0,0,0,0,0,0,0,0,
0,0,-53,-2049,79,-8,-17,6,176,0,0,0,0,0,0,0,0,0,0,0,
0,0,-58,-2049,74,-9,-19,5,162,0,0,0,0,0,0,0,0,0,0,0,
0,0,-60,-2041,86,-7,-16,6,187,0,0,0,0,0,0,0,0,0,0,0,
0,0,-53,-2046,84,-9,-17,4,182,0,0,0,0,0,0,0,0,0,0,0,
0,0,-54,-2056,76,-7,-18,6,165,0,0,0,0,0,0,0,0,0,0,0,
0,0,-55,-2048,75,-8,-17,7,173,0,0,0,0,0,0,0,0,0,0,0,
0,0,-53,-2044,83,-7,-20,2,180,0,0,0,0,0,0,0,0,0,0,0,
0,0,-55,-2047,73,-8,-19,6,169,0,0,0,0,0,0,0,0,0,0,0,
0,0,-55,-2052,81,-6,-20,7,173,0,0,0,0,0,0,0,0,0,0,0,
0,0,-54,-2051,76,-7,-18,9,173,0,0,0,0,0,0,0,0,0,0,0,
0,0,-62,-2044,67,-6,-17,1,158,0,0,0,0,0,0,0,0,0,0,0,
0,0,-52,-2054,69,-7,-16,4,162,0,0,0,0,0,0,0,0,0,0,0,
0,0,-56,-2049,79,-6,-22,8,172,0,0,0,0,0,0,0,0,0,0,0,
0,0,-62,-2050,80,-9,-16,4,165,0,0,0,0,0,0,0,0,0,0,0,
0,0,-59,-2048,83,-9,-21,5,170,0,0,0,0,0,0,0,0,0,0,0,
0,0,-57,-2050,76,-12,-18,5,162,0,0,0,0,0,0,0,0,0,0,0,
0,0,-61,-2054,78,-9,-19,6,159,0,0,0,0,0,0,0,0,0,0,0,
0,0,-61,-2050,81,-11,-20,9,166,0,0,0,0,0,0,0,0,0,0,0,
0,0,-56,-2050,85,-7,-17,7,180,0,0,0,0,0,0,0,0,0,0,0,
0,0,-53,-2045,82,-8,-19,3,179,0,0,0,0,0,0,0,0,0,0,0,
0,0,-54,-2057,85,-6,-18,2,170,0,0,0,0,0,0,0,0,0,0,0,
0,0,-58,-2048,74,-7,-18,5,167,0,0,0,0,0,0,0,0,0,0,0,
0,0,-60,-2053,80,-8,-18,3,162,0,0,0,0,0,0,0,0,0,0,0,
0,0,-61,-2046,77,-8,-17,3,167,0,0,0,0,0,0,0,0,0,0,0,
0,0,-59,-2052,77,-8,-20,4,160,0,0,0,0,0,0,0,0,0,0,0,
0,0,-62,-2054,77,-8,-18,8,161,0,0,0,0,0,0,0,0,0,0,0,
0,0,-55,-2048,76,-8,-18,6,172,0,0,0,0,0,0,0,0,0,0,0,
0,0,-64,-2046,82,-8,-19,7,171,0,0,0,0,0,0,0,0,0,0,0,
0,0,-57,-2047,84,-10,-17,4,176,0,0,0,0,0,0,0,0,0,0,0,
0,0,-52,-2050,76,-7,-16,5,174,0,0,0,0,0,0,0,0,0,0,0,
0,0,-55,-2043,77,-6,-19,7,180,0,0,0,0,0,0,0,0,0,0,0,
0,0,-57,-2049,82,-7,-18,7,176,0,0,0,0,0,0,0,0,0,0,0,
0,0,-64,-2051,81,-9,-16,3,162,0,0,0,0,0,0,0,0,0,0,0,
0,0,-63,-2054,84,-11,-20,3,157,0,0,0,0,0,0,0,0,0,0,0,
0,0,-53,-2048,85,-8,-18,2,179,0,0,0,0,0,0,0,0,0,0,0,
0,0,-58,-2056,84,-8,-19,7,168,0,0,0,0,0,0,0,0,0,0,0,
0,0,-56,-2051,82,-5,-17,7,178,0,0,0,0,0,0,0,0,0,0,0,
0,0,-57,-2049,85,-10,-19,6,174,0,0,0,0,0,0,0,0,0,0,0,
0,0,-53,-2054,73,-8,-20,4,160,0,0,0,0,0,0,0,0,0,0,0,
0,0,-65,-2048,79,-5,-20,5,165,0,0,0,0,0,0,0,0,0,0,0,
0,0,-64,-2052,83,-7,-18,6,166,0,0,0,0,0,0,0,0,0,0,0,
0,0,-60,-2044,85,-9,-20,4,175,0,0,0,0,0,0,0,0,0,0,0,
0,0,-55,-2050,83,-6,-15,9,184,0,0,0,0,0,0,0,0,0,0,0,
0,0,-57,-2038,81,-7,-19,8,187,0,0,0,0,0,0,0,0,0,0,0,
0,0,-54,-2045,90,-7,-17,2,188,0,0,0,0,0,0,0,0,0,0,0,
0,0,-51,-2051,81,-8,-17,5,177,0,0,0,0,0,0,0,0,0,0,0,
0,0,-58,-2048,81,-6,-22,4,170,0,0,0,0,0,0,0,0,0,0,0,
0,0,-57,-2048,76,-9,-19,4,166,0,0,0,0,0,0,0,0,0,0,0,
0,0,-53,-2052,78,-10,-16,5,170,0,0,0,0,0,0,0,0,0,0,0,
0,0,-53,-2044,75,-8,-21,6,174,0,0,0,0,0,0,0,0,0,0,0,
0,0,-55,-2048,77,-9,-17,8,175,0,0,0,0,0,0,0,0,0,0,0,
0,0,-54,-2054,77,-9,-19,4,163,0,0,0,0,0,0,0,0,0,0,0,
0,0,-54,-2051,78,-6,-19,7,173,0,0,0,0,0,0,0,0,0,0,0,
0,0,-57,-2054,83,-7,-18,5,170,0,0,0,0,0,0,0,0,0,0,0,
0,0,-60,-2056,80,-6,-17,1,160,0,0,0,0,0,0,0,0,0,0,0,
0,0,-59,-2047,84,-11,-18,4,172,0,0,0,0,0,0,0,0,0,0,0,
0,0,-57,-2053,77,-6,-18,4,165,0,0,0,0,0,0,0,0,0,0,0,
0,0,-55,-2055,81,-11,-20,3,161,0,0,0,0,0,0,0,0,0,0,0,
0,0,-49,-2045,78,-6,-18,5,184,0,0,0,0,0,0,0,0,0,0,0,
0,0,-63,-2058,74,-11,-18,4,146,0,0,0,0,0,0,0,0,0,0,0,
0,0,-56,-2047,76,-8,-18,3,169,0,0,0,0,0,0,0,0,0,0,0,
0,0,-61,-2056,80,-8,-20,9,162,0,0,0,0,0,0,0,0,0,0,0,
0,0,-55,-2054,80,-8,-19,5,167,0,0,0,0,0,0,0,0,0,0,0,
0,0,-52,-2047,85,-9,-22,3,177,0,0,0,0,0,0,0,0,0,0,0,
0,0,-54,-2049,76,-6,-19,6,172,0,0,0,0,0,0,0,0,0,0,0,
0,0,-67,-2052,73,-8,-18,6,152,0,0,0,0,0,0,0,0,0,0,0,
0,0,-63,-2049,79,-7,-19,4,163,0,0,0,0,0,0,0,0,0,0,0,
0,0,-57,-2049,78,-9,-15,5,171,0,0,0,0,0,0,0,0,0,0,0,
0,0,-49,-2045,76,-6,-18,4,181,0,0,0,0,0,0,0,0,0,0,0,
0,0,-59,-2047,72,-9,-16,5,165,0,0,0,0,0,0,0,0,0,0,0,
0,0,-55,-2051,84,-8,-19,3,172,0,0,0,0,0,0,0,0,0,0,0,
0,0,-57,-2051,84,-3,-18,3,176,0,0,0,0,0,0,0,0,0,0,0,
0,0,-56,-2050,81,-5,-17,8,179,0,0,0,0,0,0,0,0,0,0,0,
0,0,-61,-2049,80,-7,-21,9,169,0,0,0,0,0,0,0,0,0,0,0,
0,0,-63,-2054,78,-6,-16,4,161,0,0,0,0,0,0,0,0,0,0,0,
0,0,-52,-2054,74,-6,-16,7,171,0,0,0,0,0,0,0,0,0,0,0,
0,0,-61,-2040,86,-6,-18,5,185,0,0,0,0,0,0,0,0,0,0,0,
0,0,-61,-2040,86,-6,-18,5,185,0,0,0,0,0,0,0,0,0,0,0,
0,0,-56,-2049,82,-9,-17,4,173,0,0,0,0,0,0,0,0,0,0,0,
0,0,-61,-2044,87,-9,-16,7,183,0,0,0,0,0,0,0,0,0,0,0,
0,0,-64,-2048,84,-5,-18,3,171,0,0,0,0,0,0,0,0,0,0,0,
0,0,-60,-2049,80,-5,-18,3,169,0,0,0,0,0,0,0,0,0,0,0,
0,0,-60,-2049,80,-7,-19,3,166,0,0,0,0,0,0,0,0,0,0,0,
0,0,-59,-2052,83,-7,-17,5,171,0,0,0,0,0,0,0,0,0,0,0,
0,0,-55,-2044,78,-9,-17,7,179,0,0,0,0,0,0,0,0,0,0,0,
0,0,-53,-2050,79,-7,-19,6,174,0,0,0,0,0,0,0,0,0,0,0,
0,0,-53,-2050,79,-7,-17,4,174,0,0,0,0,0,0,0,0,0,0,0,
0,0,-62,-2055,79,-9,-16,5,160,0,0,0,0,0,0,0,0,0,0,0,
0,0,-57,-2053,85,-5,-21,10,177,0,0,0,0,0,0,0,0,0,0,0,
0,0,-59,-2050,87,-5,-20,4,175,0,0,0,0,0,0,0,0,0,0,0,
0,0,-54,-2049,70,-6,-20,3,162,0,0,0,0,0,0,0,0,0,0,0,
0,0,-58,-2052,80,-8,-21,7,166,0,0,0,0,0,0,0,0,0,0,0,
0,0,-62,-2050,79,-7,-18,7,167,0,0,0,0,0,0,0,0,0,0,0,
0,0,-60,-2043,80,-8,-22,7,173,0,0,0,0,0,0,0,0,0,0,0,
0,0,-63,-2046,73,-6,-18,2,161,0,0,0,0,0,0,0,0,0,0,0,
0,0,-59,-2046,85,-8,-17,3,177,0,0,0,0,0,0,0,0,0,0,0,
0,0,-61,-2053,81,-7,-20,5,163,0,0,0,0,0,0,0,0,0,0,0,
0,0,-65,-2052,76,-6,-19,4,156,0,0,0,0,0,0,0,0,0,0,0,
0,0,-54,-2061,84,-2,-17,5,173,0,0,0,0,0,0,0,0,0,0,0,
0,0,-58,-2049,83,-9,-17,5,173,0,0,0,0,0,0,0,0,0,0,0,
0,0,-65,-2051,80,-10,-19,5,158,0,0,0,0,0,0,0,0,0,0,0,
0,0,-57,-2051,81,-6,-19,6,172,0,0,0,0,0,0,0,0,0,0,0,
0,0,-57,-2040,76,-8,-20,4,174,0,0,0,0,0,0,0,0,0,0,0,
0,0,-57,-2052,77,-8,-16,6,168,0,0,0,0,0,0,0,0,0,0,0,
0,0,-57,-2053,77,-8,-17,6,166,0,0,0,0,0,0,0,0,0,0,0,
0,0,-54,-2050,80,-8,-20,4,170,0,0,0,0,0,0,0,0,0,0,0,
0,0,-55,-2045,79,-6,-17,3,178,0,0,0,0,0,0,0,0,0,0,0,
0,0,-57,-2045,77,-7,-17,6,176,0,0,0,0,0,0,0,0,0,0,0,
0,0,-58,-2051,82,-6,-19,8,174,0,0,0,0,0,0,0,0,0,0,0,
0,0,-52,-2052,78,-10,-16,3,169,0,0,0,0,0,0,0,0,0,0,0,
0,0,-55,-2045,82,-7,-22,4,176,0,0,0,0,0,0,0,0,0,0,0,
0,0,-58,-2051,73,-7,-22,8,161,0,0,0,0,0,0,0,0,0,0,0,
0,0,-54,-2047,82,-7,-21,5,177,0,0,0,0,0,0,0,0,0,0,0,
0,0,-49,-2051,78,-7,-17,1,173,0,0,0,0,0,0,0,0,0,0,0,
0,0,-58,-2053,78,-8,-21,5,161,0,0,0,0,0,0,0,0,0,0,0,
0,0,-58,-2052,78,-7,-17,5,167,0,0,0,0,0,0,0,0,0,0,0,
0,0,-60,-2049,74,-9,-18,4,160,0,0,0,0,0,0,0,0,0,0,0,
0,0,-63,-2045,80,-9,-19,5,168,0,0,0,0,0,0,0,0,0,0,0,
0,0,-60,-2049,79,-8,-18,6,168,0,0,0,0,0,0,0,0,0,0,0,
0,0,-58,-2052,76,-6,-16,7,169,0,0,0,0,0,0,0,0,0,0,0,
0,0,-59,-2051,74,-7,-19,6,162,0,0,0,0,0,0,0,0,0,0,0,
0,0,-58,-2045,82,-7,-15,5,181,0,0,0,0,0,0,0,0,0,0,0,
0,0,-58,-2048,81,-7,-20,4,171,0,0,0,0,0,0,0,0,0,0,0,
0,0,-57,-2050,73,-7,-20,6,163,0,0,0,0,0,0,0,0,0,0,0,
0,0,-61,-2055,82,-8,-16,3,163,0,0,0,0,0,0,0,0,0,0,0,
0,0,-52,-2047,80,-8,-21,2,173,0,0,0,0,0,0,0,0,0,0,0,
0,0,-57,-2052,81,-10,-17,3,166,0,0,0,0,0,0,0,0,0,0,0,
0,0,-56,-2056,80,-9,-22,7,162,0,0,0,0,0,0,0,0,0,0,0,
0,0,-59,-2051,83,-8,-19,7,171,0,0,0,0,0,0,0,0,0,0,0,
0,0,-55,-2053,80,-11,-20,5,164,0,0,0,0,0,0,0,0,0,0,0,
0,0,-66,-2055,81,-8,-20,1,151,0,0,0,0,0,0,0,0,0,0,0,
0,0,-58,-2050,80,-8,-21,8,169,0,0,0,0,0,0,0,0,0,0,0,
0,0,-60,-2050,81,-7,-19,3,166,0,0,0,0,0,0,0,0,0,0,0,
0,0,-67,-2053,85,-10,-18,3,158,0,0,0,0,0,0,0,0,0,0,0,
0,0,-50,-2049,78,-9,-18,4,174,0,0,0,0,0,0,0,0,0,0,0,
0,0,-56,-2049,77,-8,-22,6,166,0,0,0,0,0,0,0,0,0,0,0,
0,0,-53,-2048,84,-8,-16,7,185,0,0,0,0,0,0,0,0,0,0,0,
0,0,-53,-2052,82,-6,-18,5,176,0,0,0,0,0,0,0,0,0,0,0,
0,0,-58,-2051,74,-9,-17,4,161,0,0,0,0,0,0,0,0,0,0,0,
0,0,-60,-2053,72,-9,-16,6,158,0,0,0,0,0,0,0,0,0,0,0,
0,0,-55,-2051,70,-10,-18,1,155,0,0,0,0,0,0,0,0,0,0,0,
0,0,-56,-2048,80,-5,-16,8,182,0,0,0,0,0,0,0,0,0,0,0,
0,0,-64,-2050,80,-10,-21,2,155,0,0,0,0,0,0,0,0,0,0,0,
0,0,-58,-2046,81,-7,-19,7,177,0,0,0,0,0,0,0,0,0,0,0,
0,0,-60,-2049,73,-7,-17,6,164,0,0,0,0,0,0,0,0,0,0,0,
0,0,-57,-2043,86,-4,-18,6,189,0,0,0,0,0,0,0,0,0,0,0,
0,0,-56,-2048,88,-7,-18,8,186,0,0,0,0,0,0,0,0,0,0,0,
0,0,-55,-2057,88,-7,-18,8,177,0,0,0,0,0,0,0,0,0,0,0,
0,0,-57,-2051,83,-6,-17,5,175,0,0,0,0,0,0,0,0,0,0,0,
0,0,-55,-2055,78,-6,-18,4,166,0,0,0,0,0,0,0,0,0,0,0,
0,0,-52,-2051,90,-5,-14,5,191,0,0,0,0,0,0,0,0,0,0,0,
0,0,-56,-2049,78,-9,-17,5,170,0,0,0,0,0,0,0,0,0,0,0,
0,0,-53,-2057,83,-8,-19,3,167,0,0,0,0,0,0,0,0,0,0,0,
0,0,-55,-2047,79,-7,-21,7,175,0,0,0,0,0,0,0,0,0,0,0,
0,0,-62,-2055,76,-10,-17,3,153,0,0,0,0,0,0,0,0,0,0,0,
0,0,-58,-2053,76,-6,-18,4,163,0,0,0,0,0,0,0,0,0,0,0,
0,0,-59,-2058,78,-10,-18,4,155,0,0,0,0,0,0,0,0,0,0,0,
0,0,-56,-2041,75,-9,-15,6,179,0,0,0,0,0,0,0,0,0,0,0,
0,0,-61,-2051,83,-6,-22,6,167,0,0,0,0,0,0,0,0,0,0,0,
0,0,-59,-2043,80,-6,-21,7,177,0,0,0,0,0,0,0,0,0,0,0,
0,0,-53,-2051,77,-8,-18,6,171,0,0,0,0,0,0,0,0,0,0,0,
0,0,-67,-2050,80,-13,-19,3,152,0,0,0,0,0,0,0,0,0,0,0,
0,0,-62,-2045,89,-7,-18,8,184,0,0,0,0,0,0,0,0,0,0,0,
0,0,-61,-2052,77,-6,-21,7,162,0,0,0,0,0,0,0,0,0,0,0,
0,0,-53,-2045,80,-6,-22,4,177,0,0,0,0,0,0,0,0,0,0,0,
0,0,-54,-2045,80,-9,-16,6,181,0,0,0,0,0,0,0,0,0,0,0,
0,0,-56,-2050,80,-6,-18,5,173,0,0,0,0,0,0,0,0,0,0,0,
0,0,-58,-2048,80,-6,-16,4,175,0,0,0,0,0,0,0,0,0,0,0,
0,0,-50,-2040,87,-9,-16,6,197,0,0,0,0,0,0,0,0,0,0,0,
0,0,-62,-2051,81,-9,-16,2,163,0,0,0,0,0,0,0,0,0,0,0,
0,0,-55,-2052,84,-8,-17,8,178,0,0,0,0,0,0,0,0,0,0,0,
0,0,-57,-2057,71,-5,-17,5,158,0,0,0,0,0,0,0,0,0,0,0,
0,0,-56,-2047,77,-13,-19,3,164,0,0,0,0,0,0,0,0,0,0,0,
0,0,-61,-2054,75,-6,-17,5,160,0,0,0,0,0,0,0,0,0,0,0,
0,0,-57,-2053,84,-8,-19,5,170,0,0,0,0,0,0,0,0,0,0,0,
0,0,-54,-2044,74,-6,-18,4,175,0,0,0,0,0,0,0,0,0,0,0,
0,0,-53,-2049,79,-6,-20,4,173,0,0,0,0,0,0,0,0,0,0,0,
0,0,-57,-2049,81,-9,-19,6,171,0,0,0,0,0,0,0,0,0,0,0,
0,0,-56,-2048,79,-8,-18,1,169,0,0,0,0,0,0,0,0,0,0,0,
0,0,-54,-2050,75,-6,-19,9,173,0,0,0,0,0,0,0,0,0,0,0,
0,0,-55,-2053,80,-1,-19,6,176,0,0,0,0,0,0,0,0,0,0,0,
0,0,-58,-2049,83,-7,-20,6,173,0,0,0,0,0,0,0,0,0,0,0,
0,0,-57,-2050,72,-6,-20,4,161,0,0,0,0,0,0,0,0,0,0,0,
0,0,-58,-2054,86,-7,-20,3,168,0,0,0,0,0,0,0,0,0,0,0,
0,0,-61,-2045,80,-9,-22,5,167,0,0,0,0,0,0,0,0,0,0,0,
0,0,-50,-2049,82,-5,-16,6,186,0,0,0,0,0,0,0,0,0,0,0,
0,0,-59,-2049,76,-9,-18,3,162,0,0,0,0,0,0,0,0,0,0,0,
0,0,-59,-2049,76,-9,-18,3,162,0,0,0,0,0,0,0,0,0,0,0,
0,0,-61,-2052,79,-7,-16,8,169,0,0,0,0,0,0,0,0,0,0,0,
0,0,-59,-2047,80,-9,-19,3,168,0,0,0,0,0,0,0,0,0,0,0,
0,0,-60,-2046,82,-9,-20,4,170,0,0,0,0,0,0,0,0,0,0,0,
0,0,-60,-2046,82,-8,-18,5,174,0,0,0,0,0,0,0,0,0,0,0,
0,0,-62,-2054,76,-6,-18,6,160,0,0,0,0,0,0,0,0,0,0,0,
0,0,-56,-2047,83,-9,-19,4,175,0,0,0,0,0,0,0,0,0,0,0,
0,0,-50,-2055,76,-7,-18,3,167,0,0,0,0,0,0,0,0,0,0,0,
0,0,-63,-2043,76,-8,-19,5,167,0,0,0,0,0,0,0,0,0,0,0,
0,0,-63,-2043,76,-8,-17,6,170,0,0,0,0,0,0,0,0,0,0,0,
0,0,-57,-2050,78,-7,-18,6,170,0,0,0,0,0,0,0,0,0,0,0,
0,0,-59,-2050,81,-6,-17,6,173,0,0,0,0,0,0,0,0,0,0,0,
0,0,-55,-2050,86,-10,-19,5,175,0,0,0,0,0,0,0,0,0,0,0,
0,0,-52,-2048,77,-9,-17,8,178,0,0,0,0,0,0,0,0,0,0,0,
0,0,-57,-2048,77,-6,-19,6,172,0,0,0,0,0,0,0,0,0,0,0,
0,0,-57,-2039,84,-6,-19,6,188,0,0,0,0,0,0,0,0,0,0,0,
0,0,-55,-2056,87,-9,-15,9,179,0,0,0,0,0,0,0,0,0,0,0,
0,0,-56,-2047,82,-5,-16,8,185,0,0,0,0,0,0,0,0,0,0,0,
0,0,-56,-2047,82,-5,-16,8,185,0,0,0,0,0,0,0,0,0,0,0,
0,0,-54,-2046,81,-7,-17,5,181,0,0,0,0,0,0,0,0,0,0,0,
0,0,-63,-2048,73,-11,-18,7,159,0,0,0,0,0,0,0,0,0,0,0,
0,0,-61,-2056,77,-9,-20,3,152,0,0,0,0,0,0,0,0,0,0,0,
0,0,-57,-2043,77,-11,-18,6,173,0,0,0,0,0,0,0,0,0,0,0,
0,0,-52,-2049,85,-7,-19,7,183,0,0,0,0,0,0,0,0,0,0,0,
0,0,-57,-2053,76,-8,-20,4,160,0,0,0,0,0,0,0,0,0,0,0,
0,0,-49,-2049,85,-8,-18,5,184,0,0,0,0,0,0,0,0,0,0,0,
0,0,-55,-2049,80,-6,-20,7,175,0,0,0,0,0,0,0,0,0,0,0,
0,0,-61,-2051,75,-7,-19,6,161,0,0,0,0,0,0,0,0,0,0,0,
0,0,-57,-2042,86,-9,-18,6,185,0,0,0,0,0,0,0,0,0,0,0,
0,0,-55,-2048,78,-7,-18,6,175,0,0,0,0,0,0,0,0,0,0,0,
0,0,-53,-2051,91,-11,-13,7,188,0,0,0,0,0,0,0,0,0,0,0,
0,0,-54,-2049,79,-5,-17,6,178,0,0,0,0,0,0,0,0,0,0,0,
0,0,-54,-2045,81,-7,-22,5,177,0,0,0,0,0,0,0,0,0,0,0,
0,0,-54,-2056,79,-6,-17,8,172,0,0,0,0,0,0,0,0,0,0,0,
0,0,-59,-2044,74,-6,-17,8,175,0,0,0,0,0,0,0,0,0,0,0,
0,0,-57,-2051,73,-8,-21,3,157,0,0,0,0,0,0,0,0,0,0,0,
0,0,-55,-2048,78,-6,-17,5,176,0,0,0,0,0,0,0,0,0,0,0,
0,0,-57,-2052,73,-6,-18,7,165,0,0,0,0,0,0,0,0,0,0,0,
0,0,-57,-2053,76,-4,-19,5,166,0,0,0,0,0,0,0,0,0,0,0,
0,0,-57,-2047,84,-9,-16,4,178,0,0,0,0,0,0,0,0,0,0,0,
0,0,-51,-2050,80,-5,-19,6,179,0,0,0,0,0,0,0,0,0,0,0,
0,0,-56,-2054,79,-6,-19,8,170,0,0,0,0,0,0,0,0,0,0,0,
0,0,-55,-2047,76,-5,-19,6,175,0,0,0,0,0,0,0,0,0,0,0,
0,0,-56,-2042,77,-7,-17,7,181,0,0,0,0,0,0,0,0,0,0,0,
0,0,-59,-2050,78,-5,-17,6,171,0,0,0,0,0,0,0,0,0,0,0,
0,0,-55,-2053,72,-9,-17,4,160,0,0,0,0,0,0,0,0,0,0,0,
0,0,-55,-2056,76,-5,-21,6,163,0,0,0,0,0,0,0,0,0,0,0,
0,0,-58,-2049,75,-9,-18,3,162,0,0,0,0,0,0,0,0,0,0,0,
0,0,-57,-2050,76,-1,-18,5,173,0,0,0,0,0,0,0,0,0,0,0,
0,0,-56,-2050,75,-5,-18,9,173,0,0,0,0,0,0,0,0,0,0,0,
0,0,-65,-2051,80,-9,-16,4,161,0,0,0,0,0,0,0,0,0,0,0,
0,0,-56,-2044,77,-6,-20,4,174,0,0,0,0,0,0,0,0,0,0,0,
0,0,-56,-2046,79,-6,-20,5,175,0,0,0,0,0,0,0,0,0,0,0,
0,0,-64,-2044,77,-7,-17,5,169,0,0,0,0,0,0,0,0,0,0,0,
0,0,-56,-2047,79,-9,-18,1,169,0,0,0,0,0,0,0,0,0,0,0,
0,0,-53,-2047,82,-9,-19,4,177,0,0,0,0,0,0,0,0,0,0,0,
0,0,-57,-2049,85,-11,-19,5,172,0,0,0,0,0,0,0,0,0,0,0,
0,0,-56,-2055,83,-7,-16,3,170,0,0,0,0,0,0,0,0,0,0,0,
0,0,-55,-2052,77,-7,-18,6,169,0,0,0,0,0,0,0,0,0,0,0,
0,0,-57,-2050,79,-13,-18,5,164,0,0,0,0,0,0,0,0,0,0,0,
0,0,-58,-2045,79,-8,-17,11,181,0,0,0,0,0,0,0,0,0,0,0,
0,0,-53,-2043,77,-8,-21,5,176,0,0,0,0,0,0,0,0,0,0,0,
0,0,-60,-2049,81,-10,-18,6,168,0,0,0,0,0,0,0,0,0,0,0,
0,0,-57,-2049,76,-5,-19,7,171,0,0,0,0,0,0,0,0,0,0,0,
0,0,-57,-2050,82,-8,-18,4,171,0,0,0,0,0,0,0,0,0,0,0,
0,0,-53,-2045,82,-5,-18,8,188,0,0,0,0,0,0,0,0,0,0,0,
0,0,-53,-2056,80,-6,-17,3,169,0,0,0,0,0,0,0,0,0,0,0,
0,0,-55,-2052,74,-11,-18,5,161,0,0,0,0,0,0,0,0,0,0,0,
0,0,-53,-2051,80,-8,-15,6,177,0,0,0,0,0,0,0,0,0,0,0,
0,0,-54,-2051,86,-5,-18,3,179,0,0,0,0,0,0,0,0,0,0,0,
0,0,-59,-2043,80,-7,-20,6,176,0,0,0,0,0,0,0,0,0,0,0,
0,0,-60,-2052,83,-8,-19,4,166,0,0,0,0,0,0,0,0,0,0,0,
0,0,-61,-2051,80,-9,-18,6,165,0,0,0,0,0,0,0,0,0,0,0,
0,0,-64,-2048,81,-6,-20,2,164,0,0,0,0,0,0,0,0,0,0,0,
0,0,-52,-2051,90,-9,-18,4,182,0,0,0,0,0,0,0,0,0,0,0,
0,0,-62,-2051,84,-3,-18,2,170,0,0,0,0,0,0,0,0,0,0,0,
0,0,-55,-2055,76,-8,-17,8,167,0,0,0,0,0,0,0,0,0,0,0,
0,0,-63,-2044,80,-8,-17,3,170,0,0,0,0,0,0,0,0,0,0,0,
0,0,-59,-2055,80,-7,-18,7,166,0,0,0,0,0,0,0,0,0,0,0,
0,0,-60,-2049,81,-7,-17,9,175,0,0,0,0,0,0,0,0,0,0,0,
0,0,-49,-2056,78,-5,-19,5,172,0,0,0,0,0,0,0,0,0,0,0,
0,0,-61,-2047,76,-6,-16,7,172,0,0,0,0,0,0,0,0,0,0,0,
0,0,-50,-2049,82,-8,-19,6,180,0,0,0,0,0,0,0,0,0,0,0,
0,0,-60,-2049,82,-9,-18,3,167,0,0,0,0,0,0,0,0,0,0,0,
0,0,-55,-2051,81,-5,-19,8,177,0,0,0,0,0,0,0,0,0,0,0,
0,0,-62,-2044,84,-7,-18,3,175,0,0,0,0,0,0,0,0,0,0,0,
0,0,-56,-2046,74,-7,-17,7,174,0,0,0,0,0,0,0,0,0,0,0,
0,0,-58,-2045,77,-9,-18,6,172,0,0,0,0,0,0,0,0,0,0,0,
0,0,-60,-2052,78,-6,-21,4,161,0,0,0,0,0,0,0,0,0,0,0,
0,0,-60,-2045,86,-8,-20,3,175,0,0,0,0,0,0,0,0,0,0,0,
0,0,-59,-2055,82,-7,-20,8,167,0,0,0,0,0,0,0,0,0,0,0,
0,0,-64,-2050,78,-8,-17,6,163,0,0,0,0,0,0,0,0,0,0,0,
0,0,-55,-2046,75,-7,-17,5,174,0,0,0,0,0,0,0,0,0,0,0,
0,0,-63,-2055,85,-8,-20,5,162,0,0,0,0,0,0,0,0,0,0,0,
0,0,-60,-2050,79,-7,-19,4,165,0,0,0,0,0,0,0,0,0,0,0,
0,0,-60,-2048,77,-11,-18,6,165,0,0,0,0,0,0,0,0,0,0,0,
0,0,-57,-2049,79,-4,-17,5,175,0,0,0,0,0,0,0,0,0,0,0,
0,0,-55,-2051,89,-8,-17,3,179,0,0,0,0,0,0,0,0,0,0,0,
0,0,-66,-2047,82,-11,-18,9,168,0,0,0,0,0,0,0,0,0,0,0,
0,0,-55,-2052,84,-5,-15,8,183,0,0,0,0,0,0,0,0,0,0,0,
0,0,-50,-2059,80,-7,-17,4,169,0,0,0,0,0,0,0,0,0,0,0,
0,0,-54,-2053,77,-11,-17,6,166,0,0,0,0,0,0,0,0,0,0,0,
0,0,-59,-2055,83,-10,-18,6,165,0,0,0,0,0,0,0,0,0,0,0,
0,0,-57,-2044,77,-8,-19,8,176,0,0,0,0,0,0,0,0,0,0,0,
0,0,-56,-2049,81,-7,-17,4,174,0,0,0,0,0,0,0,0,0,0,0,
0,0,-56,-2049,86,-9,-21,3,172,0,0,0,0,0,0,0,0,0,0,0,
0,0,-62,-2057,86,-7,-20,8,166,0,0,0,0,0,0,0,0,0,0,0,
0,0,-58,-2046,72,-9,-20,6,164,0,0,0,0,0,0,0,0,0,0,0,
0,0,-57,-2052,80,-13,-19,5,162,0,0,0,0,0,0,0,0,0,0,0,
0,0,-61,-2049,80,-7,-18,4,167,0,0,0,0,0,0,0,0,0,0,0,
0,0,-57,-2056,77,-9,-17,6,162,0,0,0,0,0,0,0,0,0,0,0,
0,0,-58,-2054,81,-8,-20,6,165,0,0,0,0,0,0,0,0,0,0,0,
0,0,-58,-2054,81,-8,-20,6,165,0,0,0,0,0,0,0,0,0,0,0,
0,0,-58,-2050,86,-6,-17,10,183,0,0,0,0,0,0,0,0,0,0,0,
0,0,-56,-2053,89,-7,-22,4,173,0,0,0,0,0,0,0,0,0,0,0,
0,0,-60,-2051,77,-7,-20,1,158,0,0,0,0,0,0,0,0,0,0,0,
0,0,-60,-2051,77,-8,-19,6,163,0,0,0,0,0,0,0,0,0,0,0,
0,0,-58,-2042,82,-7,-19,5,180,0,0,0,0,0,0,0,0,0,0,0,
0,0,-55,-2047,89,-7,-19,2,182,0,0,0,0,0,0,0,0,0,0,0,
0,0,-54,-2043,81,-10,-18,6,181,0,0,0,0,0,0,0,0,0,0,0,
0,0,-58,-2049,82,-7,-17,6,175,0,0,0,0,0,0,0,0,0,0,0,
0,0,-58,-2048,84,-6,-20,5,176,0,0,0,0,0,0,0,0,0,0,0,
0,0,-58,-2053,78,-6,-20,7,166,0,0,0,0,0,0,0,0,0,0,0,
0,0,-54,-2048,83,-7,-17,7,183,0,0,0,0,0,0,0,0,0,0,0,
0,0,-51,-2046,79,-10,-20,8,179,0,0,0,0,0,0,0,0,0,0,0,
0,0,-56,-2057,73,-6,-16,5,161,0,0,0,0,0,0,0,0,0,0,0,
0,0,-54,-2055,81,-6,-20,6,170,0,0,0,0,0,0,0,0,0,0,0,
0,0,-60,-2049,76,-12,-17,3,159,0,0,0,0,0,0,0,0,0,0,0,
0,0,-54,-2051,80,-9,-19,8,173,0,0,0,0,0,0,0,0,0,0,0,
0,0,-58,-2051,84,-9,-17,5,172,0,0,0,0,0,0,0,0,0,0,0,
0,0,-63,-2045,76,-6,-18,6,169,0,0,0,0,0,0,0,0,0,0,0,
0,0,-53,-2050,83,-7,-18,4,177,0,0,0,0,0,0,0,0,0,0,0,
0,0,-56,-2053,85,-9,-18,4,171,0,0,0,0,0,0,0,0,0,0,0,
0,0,-56,-2044,79,-7,-19,4,176,0,0,0,0,0,0,0,0,0,0,0,
0,0,-58,-2044,84,-11,-19,2,173,0,0,0,0,0,0,0,0,0,0,0,
0,0,-55,-2049,80,-7,-16,5,176,0,0,0,0,0,0,0,0,0,0,0,
0,0,-57,-2050,83,-10,-12,4,176,0,0,0,0,0,0,0,0,0,0,0,
0,0,-60,-2040,77,-7,-17,4,176,0,0,0,0,0,0,0,0,0,0,0,
0,0,-58,-2048,83,-8,-17,5,176,0,0,0,0,0,0,0,0,0,0,0,
0,0,-57,-2051,85,-8,-19,6,174,0,0,0,0,0,0,0,0,0,0,0,
0,0,-56,-2049,83,-6,-19,5,176,0,0,0,0,0,0,0,0,0,0,0,
0,0,-56,-2052,85,-7,-18,7,177,0,0,0,0,0,0,0,0,0,0,0,
0,0,-61,-2048,84,-8,-19,7,174,0,0,0,0,0,0,0,0,0,0,0,
0,0,-53,-2053,80,-10,-21,7,168,0,0,0,0,0,0,0,0,0,0,0,
0,0,-54,-2045,77,-6,-18,2,175,0,0,0,0,0,0,0,0,0,0,0,
0,0,-55,-2051,89,-9,-15,7,184,0,0,0,0,0,0,0,0,0,0,0,
0,0,-62,-2044,80,-9,-18,4,170,0,0,0,0,0,0,0,0,0,0,0,
0,0,-54,-2060,79,-8,-18,4,161,0,0,0,0,0,0,0,0,0,0,0,
0,0,-52,-2050,81,-7,-19,1,172,0,0,0,0,0,0,0,0,0,0,0,
0,0,-58,-2050,77,-8,-17,2,164,0,0,0,0,0,0,0,0,0,0,0,
0,0,-60,-2052,80,-6,-19,2,163,0,0,0,0,0,0,0,0,0,0,0,
0,0,-55,-2052,84,-10,-19,4,170,0,0,0,0,0,0,0,0,0,0,0,
0,0,-55,-2052,81,-10,-18,5,169,0,0,0,0,0,0,0,0,0,0,0,
0,0,-65,-2046,82,-10,-17,4,167,0,0,0,0,0,0,0,0,0,0,0,
0,0,-53,-2055,86,-7,-20,4,173,0,0,0,0,0,0,0,0,0,0,0,
0,0,-63,-2046,85,-9,-19,7,174,0,0,0,0,0,0,0,0,0,0,0,
0,0,-60,-2048,92,-5,-20,5,183,0,0,0,0,0,0,0,0,0,0,0,
0,0,-57,-2051,78,-7,-17,2,166,0,0,0,0,0,0,0,0,0,0,0,
0,0,-54,-2051,83,-11,-16,4,173,0,0,0,0,0,0,0,0,0,0,0,
0,0,-53,-2048,79,-6,-17,5,179,0,0,0,0,0,0,0,0,0,0,0,
0,0,-61,-2054,79,-6,-17,7,166,0,0,0,0,0,0,0,0,0,0,0,
0,0,-58,-2051,81,-7,-17,8,174,0,0,0,0,0,0,0,0,0,0,0,
0,0,-56,-2050,78,-6,-17,5,172,0,0,0,0,0,0,0,0,0,0,0,
0,0,-61,-2059,86,-7,-17,8,168,0,0,0,0,0,0,0,0,0,0,0,
0,0,-65,-2050,78,-7,-17,8,165,0,0,0,0,0,0,0,0,0,0,0,
0,0,-55,-2047,75,-6,-18,8,176,0,0,0,0,0,0,0,0,0,0,0,
0,0,-62,-2044,78,-6,-21,5,169,0,0,0,0,0,0,0,0,0,0,0,
0,0,-57,-2048,80,-6,-19,7,176,0,0,0,0,0,0,0,0,0,0,0,
0,0,-57,-2051,77,-9,-16,5,167,0,0,0,0,0,0,0,0,0,0,0,
0,0,-63,-2054,83,-9,-19,6,162,0,0,0,0,0,0,0,0,0,0,0,
0,0,-62,-2042,84,-8,-18,8,181,0,0,0,0,0,0,0,0,0,0,0,
0,0,-56,-2052,84,-9,-18,4,171,0,0,0,0,0,0,0,0,0,0,0,
0,0,-57,-2050,77,-5,-22,6,167,0,0,0,0,0,0,0,0,0,0,0,
0,0,-61,-2048,83,-4,-20,5,174,0,0,0,0,0,0,0,0,0,0,0,
0,0,-56,-2041,83,-8,-18,6,185,0,0,0,0,0,0,0,0,0,0,0,
0,0,-58,-2050,83,-7,-18,8,176,0,0,0,0,0,0,0,0,0,0,0,
0,0,-61,-2049,86,-7,-18,8,177,0,0,0,0,0,0,0,0,0,0,0,
0,0,-57,-2052,84,-10,-20,5,168,0,0,0,0,0,0,0,0,0,0,0,
0,0,-59,-2043,85,-5,-17,4,184,0,0,0,0,0,0,0,0,0,0,0,
0,0,-57,-2050,79,-10,-18,3,165,0,0,0,0,0,0,0,0,0,0,0,
0,0,-54,-2055,79,-6,-21,8,169,0,0,0,0,0,0,0,0,0,0,0,
0,0,-54,-2050,85,-10,-16,6,179,0,0,0,0,0,0,0,0,0,0,0,
0,0,-60,-2046,78,-10,-19,5,167,0,0,0,0,0,0,0,0,0,0,0,
0,0,-56,-2051,92,-8,-19,4,180,0,0,0,0,0,0,0,0,0,0,0,
0,0,-56,-2047,82,-6,-16,3,179,0,0,0,0,0,0,0,0,0,0,0,
0,0,-58,-2047,83,-8,-18,5,176,0,0,0,0,0,0,0,0,0,0,0,
0,0,-53,-2057,75,-4,-18,10,171,0,0,0,0,0,0,0,0,0,0,0,
0,0,-59,-2055,81,-7,-20,4,162,0,0,0,0,0,0,0,0,0,0,0,
0,0,-55,-2048,75,-8,-20,6,169,0,0,0,0,0,0,0,0,0,0,0,
0,0,-59,-2048,85,-6,-17,8,182,0,0,0,0,0,0,0,0,0,0,0,
0,0,-58,-2049,85,-7,-17,4,176,0,0,0,0,0,0,0,0,0,0,0,
0,0,-55,-2050,79,-8,-19,5,170,0,0,0,0,0,0,0,0,0,0,0,
0,0,-57,-2042,85,-4,-16,7,192,0,0,0,0,0,0,0,0,0,0,0,
0,0,-56,-2052,78,-7,-15,5,171,0,0,0,0,0,0,0,0,0,0,0,
0,0,-58,-2051,78,-7,-17,6,169,0,0,0,0,0,0,0,0,0,0,0,
0,0,-56,-2046,83,-10,-19,2,173,0,0,0,0,0,0,0,0,0,0,0,
0,0,-63,-2055,73,-10,-16,4,151,0,0,0,0,0,0,0,0,0,0,0,
0,0,-56,-2047,80,-9,-21,6,172,0,0,0,0,0,0,0,0,0,0,0,
0,0,-58,-2042,77,-9,-18,5,174,0,0,0,0,0,0,0,0,0,0,0,
0,0,-53,-2054,77,-8,-20,6,166,0,0,0,0,0,0,0,0,0,0,0,
0,0,-56,-2052,77,-4,-18,5,170,0,0,0,0,0,0,0,0,0,0,0,
0,0,-59,-2046,75,-9,-19,4,165,0,0,0,0,0,0,0,0,0,0,0,
0,0,-60,-2049,80,-6,-17,9,175,0,0,0,0,0,0,0,0,0,0,0,
0,0,-63,-2051,82,-7,-17,1,163,0,0,0,0,0,0,0,0,0,0,0,
0,0,-55,-2052,83,-7,-14,3,176,0,0,0,0,0,0,0,0,0,0,0,
0,0,-57,-2052,79,-7,-20,6,167,0,0,0,0,0,0,0,0,0,0,0,
0,0,-62,-2051,78,-9,-17,7,164,0,0,0,0,0,0,0,0,0,0,0,
0,0,-60,-2052,85,-4,-17,7,177,0,0,0,0,0,0,0,0,0,0,0,
0,0,-61,-2056,84,-6,-17,9,171,0,0,0,0,0,0,0,0,0,0,0,
0,0,-61,-2050,81,-8,-19,5,166,0,0,0,0,0,0,0,0,0,0,0,
0,0,-60,-2056,83,-8,-20,2,159,0,0,0,0,0,0,0,0,0,0,0,
0,0,-60,-2055,77,-4,-17,4,163,0,0,0,0,0,0,0,0,0,0,0,
0,0,-62,-2057,85,-6,-18,6,166,0,0,0,0,0,0,0,0,0,0,0,
0,0,-56,-2050,73,-9,-17,6,165,0,0,0,0,0,0,0,0,0,0,0,
0,0,-59,-2052,82,-5,-18,8,174,0,0,0,0,0,0,0,0,0,0,0,
0,0,-62,-2051,82,-11,-15,7,168,0,0,0,0,0,0,0,0,0,0,0,
0,0,-56,-2045,80,-8,-20,3,173,0,0,0,0,0,0,0,0,0,0,0,
0,0,-61,-2051,81,-6,-19,6,168,0,0,0,0,0,0,0,0,0,0,0,
0,0,-61,-2051,81,-6,-19,6,168,0,0,0,0,0,0,0,0,0,0,0,
0,0,-53,-2050,78,-12,-17,2,166,0,0,0,0,0,0,0,0,0,0,0,
0,0,-56,-2052,81,-9,-20,5,167,0,0,0,0,0,0,0,0,0,0,0,
0,0,-56,-2054,80,-6,-20,3,165,0,0,0,0,0,0,0,0,0,0,0,
0,0,-45,-2049,74,-8,-17,6,179,0,0,0,0,0,0,0,0,0,0,0,
0,0,-60,-2045,78,-6,-21,4,169,0,0,0,0,0,0,0,0,0,0,0,
0,0,-60,-2045,78,-5,-18,6,175,0,0,0,0,0,0,0,0,0,0,0,
0,0,-54,-2046,81,-6,-19,7,182,0,0,0,0,0,0,0,0,0,0,0,
0,0,-54,-2047,85,-10,-19,3,177,0,0,0,0,0,0,0,0,0,0,0,
0,0,-54,-2045,84,-7,-18,5,184,0,0,0,0,0,0,0,0,0,0,0,
0,0,-57,-2054,78,-8,-21,8,164,0,0,0,0,0,0,0,0,0,0,0,
0,0,-59,-2043,75,-11,-17,4,168,0,0,0,0,0,0,0,0,0,0,0,
0,0,-54,-2044,79,-5,-16,5,184,0,0,0,0,0,0,0,0,0,0,0,
0,0,-56,-2052,83,-8,-18,9,176,0,0,0,0,0,0,0,0,0,0,0,
0,0,-53,-2050,76,-6,-19,8,174,0,0,0,0,0,0,0,0,0,0,0,
0,0,-56,-2054,76,-6,-20,4,162,0,0,0,0,0,0,0,0,0,0,0,
0,0,-60,-2051,85,-9,-19,5,169,0,0,0,0,0,0,0,0,0,0,0,
0,0,-53,-2045,77,-6,-18,6,180,0,0,0,0,0,0,0,0,0,0,0,
0,0,-57,-2046,84,-4,-19,5,182,0,0,0,0,0,0,0,0,0,0,0,
0,0,-52,-2050,78,-11,-19,4,168,0,0,0,0,0,0,0,0,0,0,0,
0,0,-58,-2050,77,-6,-18,8,171,0,0,0,0,0,0,0,0,0,0,0,
0,0,-62,-2053,85,-7,-18,5,168,0,0,0,0,0,0,0,0,0,0,0,
0,0,-53,-2054,77,-9,-16,6,169,0,0,0,0,0,0,0,0,0,0,0,
0,0,-63,-2040,79,-6,-19,4,174,0,0,0,0,0,0,0,0,0,0,0,
0,0,-60,-2048,79,-8,-18,9,173,0,0,0,0,0,0,0,0,0,0,0,
0,0,-58,-2048,79,-5,-16,7,178,0,0,0,0,0,0,0,0,0,0,0,
0,0,-61,-2053,78,-10,-20,2,154,0,0,0,0,0,0,0,0,0,0,0,
0,0,-58,-2048,75,-8,-16,3,167,0,0,0,0,0,0,0,0,0,0,0,
0,0,-54,-2047,84,-5,-17,5,185,0,0,0,0,0,0,0,0,0,0,0,
0,0,-63,-2053,77,-10,-18,5,156,0,0,0,0,0,0,0,0,0,0,0,
0,0,-58,-2051,78,-9,-21,6,163,0,0,0,0,0,0,0,0,0,0,0,
0,0,-56,-2048,74,-6,-17,4,170,0,0,0,0,0,0,0,0,0,0,0,
0,0,-56,-2048,75,-5,-15,6,176,0,0,0,0,0,0,0,0,0,0,0,
0,0,-55,-2054,79,-10,-17,7,168,0,0,0,0,0,0,0,0,0,0,0,
0,0,-60,-2049,74,-7,-19,3,160,0,0,0,0,0,0,0,0,0,0,0,
0,0,-56,-2046,85,-6,-18,6,184,0,0,0,0,0,0,0,0,0,0,0,
0,0,-56,-2049,75,-5,-20,5,168,0,0,0,0,0,0,0,0,0,0,0,
0,0,-60,-2053,77,-6,-16,7,167,0,0,0,0,0,0,0,0,0,0,0,
0,0,-58,-2054,90,-6,-17,5,178,0,0,0,0,0,0,0,0,0,0,0,
0,0,-57,-2051,80,-10,-20,5,165,0,0,0,0,0,0,0,0,0,0,0,
0,0,-56,-2044,75,-5,-20,4,173,0,0,0,0,0,0,0,0,0,0,0,
0,0,-57,-2053,78,-7,-17,2,164,0,0,0,0,0,0,0,0,0,0,0,
0,0,-56,-2053,83,-8,-20,4,168,0,0,0,0,0,0,0,0,0,0,0,
0,0,-59,-2051,86,-10,-18,7,173,0,0,0,0,0,0,0,0,0,0,0,
0,0,-61,-2052,83,-10,-17,3,164,0,0,0,0,0,0,0,0,0,0,0,
0,0,-64,-2049,74,-9,-21,4,153,0,0,0,0,0,0,0,0,0,0,0,
0,0,-66,-2045,84,-6,-17,2,171,0,0,0,0,0,0,0,0,0,0,0,
0,0,-52,-2049,77,-10,-18,5,171,0,0,0,0,0,0,0,0,0,0,0,
0,0,-59,-2053,86,-7,-20,5,170,0,0,0,0,0,0,0,0,0,0,0,
0,0,-55,-2048,81,-8,-17,2,174,0,0,0,0,0,0,0,0,0,0,0,
0,0,-62,-2050,79,-8,-19,4,162,0,0,0,0,0,0,0,0,0,0,0,
0,0,-55,-2053,82,-6,-19,5,172,0,0,0,0,0,0,0,0,0,0,0,
0,0,-57,-2048,76,-2,-21,6,173,0,0,0,0,0,0,0,0,0,0,0,
0,0,-57,-2048,80,-8,-20,3,169,0,0,0,0,0,0,0,0,0,0,0,
0,0,-63,-2050,79,-8,-18,6,164,0,0,0,0,0,0,0,0,0,0,0,
0,0,-61,-2049,87,-7,-18,6,176,0,0,0,0,0,0,0,0,0,0,0,
0,0,-64,-2056,82,-5,-21,3,157,0,0,0,0,0,0,0,0,0,0,0,
0,0,-58,-2051,83,-3,-16,6,179,0,0,0,0,0,0,0,0,0,0,0,
0,0,-66,-2051,75,-6,-19,6,157,0,0,0,0,0,0,0,0,0,0,0,
0,0,-55,-2049,81,-8,-16,6,177,0,0,0,0,0,0,0,0,0,0,0,
0,0,-56,-2047,80,-4,-18,5,179,0,0,0,0,0,0,0,0,0,0,0,
0,0,-53,-2048,80,-10,-14,8,182,0,0,0,0,0,0,0,0,0,0,0,
0,0,-59,-2050,81,-7,-18,8,173,0,0,0,0,0,0,0,0,0,0,0,
0,0,-57,-2048,74,-6,-16,3,169,0,0,0,0,0,0,0,0,0,0,0,
0,0,-53,-2047,82,-11,-20,2,172,0,0,0,0,0,0,0,0,0,0,0,
0,0,-56,-2054,75,-8,-19,4,160,0,0,0,0,0,0,0,0,0,0,0,
0,0,-53,-2049,73,-5,-20,3,167,0,0,0,0,0,0,0,0,0,0,0,
0,0,-63,-2051,84,-9,-18,8,169,0,0,0,0,0,0,0,0,0,0,0,
0,0,-61,-2047,84,-10,-17,1,169,0,0,0,0,0,0,0,0,0,0,0,
0,0,-56,-2044,77,-7,-18,3,174,0,0,0,0,0,0,0,0,0,0,0,
0,0,-61,-2056,79,-7,-20,8,161,0,0,0,0,0,0,0,0,0,0,0,
0,0,-55,-2051,83,-7,-23,4,169,0,0,0,0,0,0,0,0,0,0,0,
0,0,-59,-2054,81,-10,-17,5,164,0,0,0,0,0,0,0,0,0,0,0,
0,0,-61,-2042,81,-8,-20,8,177,0,0,0,0,0,0,0,0,0,0,0,
0,0,-52,-2052,82,-10,-19,7,174,0,0,0,0,0,0,0,0,0,0,0,
0,0,-53,-2048,81,-11,-17,6,177,0,0,0,0,0,0,0,0,0,0,0,
0,0,-61,-2048,79,-10,-17,2,164,0,0,0,0,0,0,0,0,0,0,0,
0,0,-57,-2047,79,-8,-19,4,171,0,0,0,0,0,0,0,0,0,0,0,
0,0,-58,-2051,78,-9,-15,6,169,0,0,0,0,0,0,0,0,0,0,0,
0,0,-60,-2052,81,-11,-21,5,160,0,0,0,0,0,0,0,0,0,0,0,
0,0,-56,-2050,84,-8,-18,4,174,0,0,0,0,0,0,0,0,0,0,0,
0,0,-59,-2049,88,-7,-17,4,178,0,0,0,0,0,0,0,0,0,0,0,
0,0,-58,-2051,80,-5,-18,7,173,0,0,0,0,0,0,0,0,0,0,0,
0,0,-61,-2045,74,-8,-15,6,170,0,0,0,0,0,0,0,0,0,0,0,
0,0,-61,-2054,84,-11,-18,5,163,0,0,0,0,0,0,0,0,0,0,0,
0,0,-58,-2048,79,-9,-16,5,172,0,0,0,0,0,0,0,0,0,0,0,
0,0,-54,-2053,75,-6,-16,4,168,0,0,0,0,0,0,0,0,0,0,0,
0,0,-59,-2046,82,-8,-18,6,176,0,0,0,0,0,0,0,0,0,0,0,
0,0,-66,-2050,79,-8,-16,5,162,0,0,0,0,0,0,0,0,0,0,0,
0,0,-58,-2052,77,-10,-18,10,167,0,0,0,0,0,0,0,0,0,0,0,
0,0,-60,-2057,80,-6,-19,6,162,0,0,0,0,0,0,0,0,0,0,0,
0,0,-55,-2048,80,-7,-16,4,177,0,0,0,0,0,0,0,0,0,0,0,
0,0,-65,-2049,79,-9,-17,5,162,0,0,0,0,0,0,0,0,0,0,0,
0,0,-61,-2047,85,-7,-18,4,175,0,0,0,0,0,0,0,0,0,0,0,
0,0,-58,-2054,80,-9,-19,2,160,0,0,0,0,0,0,0,0,0,0,0,
0,0,-50,-2045,85,-8,-16,3,188,0,0,0,0,0,0,0,0,0,0,0,
0,0,-61,-2049,82,-5,-18,4,171,0,0,0,0,0,0,0,0,0,0,0,
0,0,-60,-2053,79,-11,-17,5,161,0,0,0,0,0,0,0,0,0,0,0,
0,0,-60,-2051,72,-9,-17,6,159,0,0,0,0,0,0,0,0,0,0,0,
0,0,-55,-2053,85,-6,-15,9,183,0,0,0,0,0,0,0,0,0,0,0,
0,0,-53,-2051,81,-7,-19,2,171,0,0,0,0,0,0,0,0,0,0,0,
0,0,-57,-2050,73,-4,-20,6,166,0,0,0,0,0,0,0,0,0,0,0,
0,0,-55,-2049,87,-7,-20,3,177,0,0,0,0,0,0,0,0,0,0,0,
0,0,-66,-2048,73,-7,-17,5,159,0,0,0,0,0,0,0,0,0,0,0,
0,0,-62,-2053,82,-5,-17,7,170,0,0,0,0,0,0,0,0,0,0,0,
0,0,-55,-2049,82,-5,-17,7,181,0,0,0,0,0,0,0,0,0,0,0,
0,0,-59,-2044,80,-10,-18,8,176,0,0,0,0,0,0,0,0,0,0,0,
0,0,-62,-2051,87,-7,-17,7,175,0,0,0,0,0,0,0,0,0,0,0,
0,0,-62,-2051,87,-7,-17,7,175,0,0,0,0,0,0,0,0,0,0,0,
0,0,-57,-2052,76,-8,-19,4,162,0,0,0,0,0,0,0,0,0,0,0,
0,0,-53,-2056,83,-5,-16,8,179,0,0,0,0,0,0,0,0,0,0,0,
0,0,-58,-2048,81,-7,-19,6,174,0,0,0,0,0,0,0,0,0,0,0,
0,0,-58,-2048,81,-7,-19,6,174,0,0,0,0,0,0,0,0,0,0,0,
0,0,-54,-2050,85,-7,-17,5,180,0,0,0,0,0,0,0,0,0,0,0,
0,0,-64,-2044,78,-8,-18,4,167,0,0,0,0,0,0,0,0,0,0,0,
0,0,-58,-2050,76,-7,-17,7,169,0,0,0,0,0,0,0,0,0,0,0,
0,0,-60,-2049,75,-6,-20,6,164,0,0,0,0,0,0,0,0,0,0,0,
0,0,-66,-2049,79,-7,-20,10,165,0,0,0,0,0,0,0,0,0,0,0,
0,0,-66,-2049,79,-8,-20,5,159,0,0,0,0,0,0,0,0,0,0,0,
0,0,-57,-2046,77,-10,-16,3,170,0,0,0,0,0,0,0,0,0,0,0,
0,0,-53,-2044,76,-8,-17,6,179,0,0,0,0,0,0,0,0,0,0,0,
0,0,-57,-2050,79,-8,-17,8,173,0,0,0,0,0,0,0,0,0,0,0,
0,0,-63,-2051,75,-4,-19,3,159,0,0,0,0,0,0,0,0,0,0,0,
0,0,-56,-2050,81,-10,-16,5,172,0,0,0,0,0,0,0,0,0,0,0,
0,0,-54,-2047,78,-6,-17,6,179,0,0,0,0,0,0,0,0,0,0,0,
0,0,-61,-2046,79,-4,-17,6,176,0,0,0,0,0,0,0,0,0,0,0,
0,0,-60,-2050,83,-4,-17,6,176,0,0,0,0,0,0,0,0,0,0,0,
0,0,-59,-2048,81,-8,-18,5,172,0,0,0,0,0,0,0,0,0,0,0,
0,0,-55,-2060,77,-7,-18,2,157,0,0,0,0,0,0,0,0,0,0,0,
0,0,-64,-2045,82,-10,-17,3,168,0,0,0,0,0,0,0,0,0,0,0,
0,0,-55,-2046,80,-6,-17,2,177,0,0,0,0,0,0,0,0,0,0,0,
0,0,-61,-2049,78,-7,-17,5,167,0,0,0,0,0,0,0,0,0,0,0,
0,0,-57,-2046,77,-4,-20,5,174,0,0,0,0,0,0,0,0,0,0,0,
0,0,-59,-2051,76,-8,-18,7,165,0,0,0,0,0,0,0,0,0,0,0,
0,0,-60,-2045,74,-7,-17,5,169,0,0,0,0,0,0,0,0,0,0,0,
0,0,-57,-2047,81,-13,-17,3,169,0,0,0,0,0,0,0,0,0,0,0,
0,0,-58,-2050,84,-9,-20,1,166,0,0,0,0,0,0,0,0,0,0,0,
0,0,-61,-2053,76,-6,-20,5,159,0,0,0,0,0,0,0,0,0,0,0,
0,0,-62,-2057,79,-7,-17,4,158,0,0,0,0,0,0,0,0,0,0,0,
0,0,-56,-2046,82,-8,-18,7,180,0,0,0,0,0,0,0,0,0,0,0,
0,0,-61,-2052,81,-8,-17,7,168,0,0,0,0,0,0,0,0,0,0,0,
0,0,-55,-2043,76,-10,-20,3,170,0,0,0,0,0,0,0,0,0,0,0,
0,0,-60,-2053,77,-8,-20,5,159,0,0,0,0,0,0,0,0,0,0,0,
0,0,-52,-2042,87,-6,-16,8,198,0,0,0,0,0,0,0,0,0,0,0,
0,0,-57,-2043,81,-7,-17,10,186,0,0,0,0,0,0,0,0,0,0,0,
0,0,-57,-2044,80,-8,-18,6,178,0,0,0,0,0,0,0,0,0,0,0,
0,0,-58,-2047,78,-6,-20,7,173,0,0,0,0,0,0,0,0,0,0,0,
0,0,-61,-2049,80,-7,-19,7,169,0,0,0,0,0,0,0,0,0,0,0,
0,0,-64,-2043,81,-8,-18,6,173,0,0,0,0,0,0,0,0,0,0,0,
0,0,-54,-2052,71,-9,-17,4,161,0,0,0,0,0,0,0,0,0,0,0,
0,0,-58,-2049,82,-7,-18,6,174,0,0,0,0,0,0,0,0,0,0,0,
0,0,-56,-2049,83,-9,-23,5,169,0,0,0,0,0,0,0,0,0,0,0,
0,0,-56,-2054,85,-6,-19,7,175,0,0,0,0,0,0,0,0,0,0,0,
0,0,-56,-2047,78,-7,-19,5,173,0,0,0,0,0,0,0,0,0,0,0,
0,0,-60,-2048,79,-8,-20,4,166,0,0,0,0,0,0,0,0,0,0,0,
0,0,-58,-2051,81,-7,-19,1,165,0,0,0,0,0,0,0,0,0,0,0,
0,0,-54,-2043,76,-9,-19,5,175,0,0,0,0,0,0,0,0,0,0,0,
0,0,-58,-2048,75,-9,-21,6,164,0,0,0,0,0,0,0,0,0,0,0,
0,0,-59,-2053,78,-6,-18,5,165,0,0,0,0,0,0,0,0,0,0,0,
0,0,-61,-2052,72,-6,-17,8,162,0,0,0,0,0,0,0,0,0,0,0,
0,0,-57,-2048,79,-9,-19,5,170,0,0,0,0,0,0,0,0,0,0,0,
0,0,-56,-2057,80,-7,-20,5,163,0,0,0,0,0,0,0,0,0,0,0,
0,0,-55,-2055,75,-7,-17,4,163,0,0,0,0,0,0,0,0,0,0,0,
0,0,-61,-2051,76,-11,-19,7,159,0,0,0,0,0,0,0,0,0,0,0,
0,0,-61,-2050,76,-6,-18,1,160,0,0,0,0,0,0,0,0,0,0,0,
0,0,-59,-2052,80,-11,-20,2,158,0,0,0,0,0,0,0,0,0,0,0,
0,0,-57,-2046,81,-4,-21,6,178,0,0,0,0,0,0,0,0,0,0,0,
0,0,-55,-2052,81,-9,-19,9,173,0,0,0,0,0,0,0,0,0,0,0,
0,0,-51,-2049,79,-6,-15,6,182,0,0,0,0,0,0,0,0,0,0,0,
0,0,-51,-2043,84,-7,-19,5,188,0,0,0,0,0,0,0,0,0,0,0,
0,0,-57,-2051,79,-7,-18,4,168,0,0,0,0,0,0,0,0,0,0,0,
