1,2,3,4,5,6,7,8,9,10,11,12,13,14,15,16,17,18,19,20,
UserData_20,Frame ID£º0x01,FC_ACC_X,FC_ACC_Y,FC_ACC_Z,FC_GYR_X,FC_GYR_Y,FC_GYR_Z,FC_STA_Shock,Frame ID£º0x02,FC_MAG_X,FC_MAG_Y,FC_MAG_Z,FC_ALT_BAR,FC_SenserTMP,FC_STA_BAR,FC_STA_MAG,Frame ID£º0x03,FC_ATT_ROL,FC_ATT_PIT,
0,0,-2049,-26,63,-7,-22,6,183,0,0,0,0,0,0,0,0,0,0,0,
0,0,-2053,-24,70,-4,-13,4,198,0,0,0,0,0,0,0,0,0,0,0,
0,0,-2046,-24,63,-7,-19,6,192,0,0,0,0,0,0,0,0,0,0,0,
0,0,-2051,-27,63,-4,-16,8,191,0,0,0,0,0,0,0,0,0,0,0,
0,0,-2046,-23,64,-8,-17,6,195,0,0,0,0,0,0,0,0,0,0,0,
0,0,-2049,-25,66,-7,-19,6,190,0,0,0,0,0,0,0,0,0,0,0,
0,0,-2046,-24,69,-5,-18,6,201,0,0,0,0,0,0,0,0,0,0,0,
0,0,-2043,-28,68,-8,-20,8,196,0,0,0,0,0,0,0,0,0,0,0,
0,0,-2044,-25,68,-3,-16,9,208,0,0,0,0,0,0,0,0,0,0,0,
0,0,-2048,-25,71,-7,-17,9,202,0,0,0,0,0,0,0,0,0,0,0,
0,0,-2047,-20,71,-6,-20,7,204,0,0,0,0,0,0,0,0,0,0,0,
0,0,-2047,-23,64,-5,-21,6,193,0,0,0,0,0,0,0,0,0,0,0,
0,0,-2049,-28,66,-8,-19,3,183,0,0,0,0,0,0,0,0,0,0,0,
0,0,-2049,-28,67,-7,-19,2,184,0,0,0,0,0,0,0,0,0,0,0,
0,0,-2053,-26,63,-4,-17,4,185,0,0,0,0,0,0,0,0,0,0,0,
0,0,-2053,-17,63,-5,-22,6,190,0,0,0,0,0,0,0,0,0,0,0,
0,0,-2049,-27,58,-5,-19,3,179,0,0,0,0,0,0,0,0,0,0,0,
0,0,-2051,-21,68,-4,-15,6,201,0,0,0,0,0,0,0,0,0,0,0,
0,0,-2050,-27,75,-3,-17,8,204,0,0,0,0,0,0,0,0,0,0,0,
0,0,-2052,-23,64,-5,-17,7,192,0,0,0,0,0,0,0,0,0,0,0,
0,0,-2048,-25,67,-7,-21,6,191,0,0,0,0,0,0,0,0,0,0,0,
0,0,-2045,-32,75,-6,-17,5,199,0,0,0,0,0,0,0,0,0,0,0,
0,0,-2052,-28,71,-11,-16,6,188,0,0,0,0,0,0,0,0,0,0,0,
0,0,-2047,-32,66,-2,-21,6,189,0,0,0,0,0,0,0,0,0,0,0,
0,0,-2049,-26,61,-9,-17,2,180,0,0,0,0,0,0,0,0,0,0,0,
0,0,-2046,-26,71,-6,-17,4,199,0,0,0,0,0,0,0,0,0,0,0,
0,0,-2046,-25,70,-10,-19,6,195,0,0,0,0,0,0,0,0,0,0,0,
0,0,-2052,-25,61,-8,-19,4,179,0,0,0,0,0,0,0,0,0,0,0,
0,0,-2051,-25,60,-4,-17,6,187,0,0,0,0,0,0,0,0,0,0,0,
0,0,-2050,-23,70,-7,-16,5,197,0,0,0,0,0,0,0,0,0,0,0,
0,0,-2050,-25,66,-8,-19,7,189,0,0,0,0,0,0,0,0,0,0,0,
0,0,-2050,-24,65,-8,-18,3,186,0,0,0,0,0,0,0,0,0,0,0,
0,0,-2047,-27,62,-6,-17,8,192,0,0,0,0,0,0,0,0,0,0,0,
0,0,-2044,-26,74,-8,-17,5,203,0,0,0,0,0,0,0,0,0,0,0,
0,0,-2053,-25,68,-7,-20,7,188,0,0,0,0,0,0,0,0,0,0,0,
0,0,-2058,-22,67,-9,-20,8,184,0,0,0,0,0,0,0,0,0,0,0,
0,0,-2048,-22,66,-6,-21,4,192,0,0,0,0,0,0,0,0,0,0,0,
0,0,-2049,-23,64,-5,-17,6,194,0,0,0,0,0,0,0,0,0,0,0,
0,0,-2052,-23,61,-7,-18,2,181,0,0,0,0,0,0,0,0,0,0,0,
0,0,-2049,-23,73,-8,-18,7,200,0,0,0,0,0,0,0,0,0,0,0,
0,0,-2047,-21,73,-7,-19,6,204,0,0,0,0,0,0,0,0,0,0,0,
0,0,-2052,-27,70,-6,-15,7,195,0,0,0,0,0,0,0,0,0,0,0,
0,0,-2047,-16,64,-5,-16,6,205,0,0,0,0,0,0,0,0,0,0,0,
0,0,-2048,-23,72,-7,-20,5,198,0,0,0,0,0,0,0,0,0,0,0,
0,0,-2048,-28,65,-5,-21,4,186,0,0,0,0,0,0,0,0,0,0,0,
0,0,-2047,-23,64,-2,-18,7,200,0,0,0,0,0,0,0,0,0,0,0,
0,0,-2044,-26,63,-10,-20,7,189,0,0,0,0,0,0,0,0,0,0,0,
0,0,-2047,-18,65,-6,-20,3,196,0,0,0,0,0,0,0,0,0,0,0,
0,0,-2051,-33,69,-4,-16,9,192,0,0,0,0,0,0,0,0,0,0,0,
0,0,-2047,-26,66,-6,-20,2,188,0,0,0,0,0,0,0,0,0,0,0,
0,0,-2048,-26,65,-5,-18,7,194,0,0,0,0,0,0,0,0,0,0,0,
0,0,-2058,-21,69,-7,-16,5,190,0,0,0,0,0,0,0,0,0,0,0,
0,0,-2038,-23,62,-8,-16,4,200,0,0,0,0,0,0,0,0,0,0,0,
0,0,-2052,-21,70,-6,-17,8,200,0,0,0,0,0,0,0,0,0,0,0,
0,0,-2046,-29,66,-2,-22,6,192,0,0,0,0,0,0,0,0,0,0,0,
0,0,-2052,-27,63,-7,-19,4,180,0,0,0,0,0,0,0,0,0,0,0,
0,0,-2054,-25,68,-8,-20,6,185,0,0,0,0,0,0,0,0,0,0,0,
0,0,-2051,-24,72,-7,-19,6,195,0,0,0,0,0,0,0,0,0,0,0,
0,0,-2044,-26,61,-6,-15,6,195,0,0,0,0,0,0,0,0,0,0,0,
0,0,-2045,-21,65,-7,-17,6,200,0,0,0,0,0,0,0,0,0,0,0,
0,0,-2053,-22,69,-9,-16,8,195,0,0,0,0,0,0,0,0,0,0,0,
0,0,-2052,-22,68,-5,-19,6,194,0,0,0,0,0,0,0,0,0,0,0,
0,0,-2050,-29,68,-4,-18,4,189,0,0,0,0,0,0,0,0,0,0,0,
0,0,-2052,-23,70,-7,-18,2,190,0,0,0,0,0,0,0,0,0,0,0,
0,0,-2053,-24,66,-3,-19,5,190,0,0,0,0,0,0,0,0,0,0,0,
0,0,-2052,-26,59,-5,-15,4,183,0,0,0,0,0,0,0,0,0,0,0,
0,0,-2042,-25,63,-3,-20,5,197,0,0,0,0,0,0,0,0,0,0,0,
0,0,-2052,-26,70,-3,-18,9,198,0,0,0,0,0,0,0,0,0,0,0,
0,0,-2048,-26,70,-6,-17,6,198,0,0,0,0,0,0,0,0,0,0,0,
0,0,-2053,-28,72,-5,-19,8,193,0,0,0,0,0,0,0,0,0,0,0,
0,0,-2047,-21,64,-9,-20,7,193,0,0,0,0,0,0,0,0,0,0,0,
0,0,-2043,-26,65,-8,-20,3,190,0,0,0,0,0,0,0,0,0,0,0,
0,0,-2052,-28,68,-5,-19,7,189,0,0,0,0,0,0,0,0,0,0,0,
0,0,-2047,-29,64,-6,-18,4,187,0,0,0,0,0,0,0,0,0,0,0,
0,0,-2048,-26,69,-6,-18,3,193,0,0,0,0,0,0,0,0,0,0,0,
0,0,-2044,-27,66,-9,-16,4,193,0,0,0,0,0,0,0,0,0,0,0,
0,0,-2053,-25,68,-8,-19,5,186,0,0,0,0,0,0,0,0,0,0,0,
0,0,-2049,-31,72,-9,-16,3,188,0,0,0,0,0,0,0,0,0,0,0,
0,0,-2045,-23,64,-9,-16,3,193,0,0,0,0,0,0,0,0,0,0,0,
0,0,-2045,-23,64,-6,-18,5,196,0,0,0,0,0,0,0,0,0,0,0,
0,0,-2045,-25,69,-7,-20,4,195,0,0,0,0,0,0,0,0,0,0,0,
0,0,-2041,-23,69,-6,-18,4,204,0,0,0,0,0,0,0,0,0,0,0,
0,0,-2059,-24,65,-5,-17,3,181,0,0,0,0,0,0,0,0,0,0,0,
0,0,-2059,-24,65,-6,-15,4,183,0,0,0,0,0,0,0,0,0,0,0,
0,0,-2044,-22,68,-8,-19,5,199,0,0,0,0,0,0,0,0,0,0,0,
0,0,-2040,-23,70,-7,-15,8,212,0,0,0,0,0,0,0,0,0,0,0,
0,0,-2047,-20,67,-7,-16,8,204,0,0,0,0,0,0,0,0,0,0,0,
0,0,-2047,-20,67,-8,-22,4,193,0,0,0,0,0,0,0,0,0,0,0,
0,0,-2050,-33,75,-7,-20,6,189,0,0,0,0,0,0,0,0,0,0,0,
0,0,-2047,-24,69,-6,-15,4,200,0,0,0,0,0,0,0,0,0,0,0,
0,0,-2046,-12,73,-6,-19,8,217,0,0,0,0,0,0,0,0,0,0,0,
0,0,-2049,-23,66,-8,-20,3,187,0,0,0,0,0,0,0,0,0,0,0,
0,0,-2051,-28,69,-5,-21,6,188,0,0,0,0,0,0,0,0,0,0,0,
0,0,-2048,-21,67,-7,-19,8,199,0,0,0,0,0,0,0,0,0,0,0,
0,0,-2049,-27,70,-7,-20,7,192,0,0,0,0,0,0,0,0,0,0,0,
0,0,-2050,-24,70,-3,-21,5,195,0,0,0,0,0,0,0,0,0,0,0,
0,0,-2043,-20,74,-7,-18,6,211,0,0,0,0,0,0,0,0,0,0,0,
0,0,-2050,-27,70,-8,-16,5,192,0,0,0,0,0,0,0,0,0,0,0,
0,0,-2052,-23,63,-6,-18,4,186,0,0,0,0,0,0,0,0,0,0,0,
0,0,-2048,-27,66,-8,-18,7,191,0,0,0,0,0,0,0,0,0,0,0,
0,0,-2045,-21,69,-9,-18,6,201,0,0,0,0,0,0,0,0,0,0,0,
0,0,-2040,-23,72,-6,-16,5,211,0,0,0,0,0,0,0,0,0,0,0,
0,0,-2056,-25,67,-6,-18,8,188,0,0,0,0,0,0,0,0,0,0,0,
0,0,-2046,-24,68,-10,-17,6,196,0,0,0,0,0,0,0,0,0,0,0,
0,0,-2055,-26,68,-6,-20,8,187,0,0,0,0,0,0,0,0,0,0,0,
0,0,-2049,-27,69,-9,-17,2,187,0,0,0,0,0,0,0,0,0,0,0,
0,0,-2044,-27,75,-7,-19,3,200,0,0,0,0,0,0,0,0,0,0,0,
0,0,-2043,-26,65,-7,-15,8,201,0,0,0,0,0,0,0,0,0,0,0,
0,0,-2050,-28,62,-6,-15,6,187,0,0,0,0,0,0,0,0,0,0,0,
0,0,-2046,-24,74,-6,-18,6,205,0,0,0,0,0,0,0,0,0,0,0,
0,0,-2043,-24,68,-3,-20,3,200,0,0,0,0,0,0,0,0,0,0,0,
0,0,-2048,-29,76,-8,-18,9,201,0,0,0,0,0,0,0,0,0,0,0,
0,0,-2042,-27,66,-10,-19,3,190,0,0,0,0,0,0,0,0,0,0,0,
0,0,-2045,-29,69,-7,-17,6,196,0,0,0,0,0,0,0,0,0,0,0,
0,0,-2047,-26,72,-7,-18,4,197,0,0,0,0,0,0,0,0,0,0,0,
0,0,-2041,-26,69,-7,-18,7,203,0,0,0,0,0,0,0,0,0,0,0,
0,0,-2049,-27,66,-3,-19,6,192,0,0,0,0,0,0,0,0,0,0,0,
0,0,-2056,-26,65,-4,-18,4,183,0,0,0,0,0,0,0,0,0,0,0,
0,0,-2051,-27,69,-6,-19,3,187,0,0,0,0,0,0,0,0,0,0,0,
0,0,-2044,-18,68,-3,-17,4,209,0,0,0,0,0,0,0,0,0,0,0,
0,0,-2046,-22,62,-8,-18,6,193,0,0,0,0,0,0,0,0,0,0,0,
0,0,-2051,-29,70,-5,-18,7,192,0,0,0,0,0,0,0,0,0,0,0,
0,0,-2046,-27,75,-6,-19,5,201,0,0,0,0,0,0,0,0,0,0,0,
0,0,-2046,-23,66,-8,-18,8,198,0,0,0,0,0,0,0,0,0,0,0,
0,0,-2052,-27,71,-9,-18,8,191,0,0,0,0,0,0,0,0,0,0,0,
0,0,-2050,-25,72,-6,-21,3,191,0,0,0,0,0,0,0,0,0,0,0,
0,0,-2046,-28,66,-4,-19,8,196,0,0,0,0,0,0,0,0,0,0,0,
0,0,-2048,-24,67,-6,-17,8,199,0,0,0,0,0,0,0,0,0,0,0,
0,0,-2048,-25,67,-5,-17,5,196,0,0,0,0,0,0,0,0,0,0,0,
0,0,-2037,-20,61,-8,-18,5,202,0,0,0,0,0,0,0,0,0,0,0,
0,0,-2046,-23,62,-2,-17,6,199,0,0,0,0,0,0,0,0,0,0,0,
0,0,-2045,-27,69,-6,-19,4,195,0,0,0,0,0,0,0,0,0,0,0,
0,0,-2048,-25,64,-5,-16,8,197,0,0,0,0,0,0,0,0,0,0,0,
0,0,-2045,-18,68,-6,-19,7,206,0,0,0,0,0,0,0,0,0,0,0,
0,0,-2052,-28,72,-6,-20,8,192,0,0,0,0,0,0,0,0,0,0,0,
0,0,-2047,-26,68,-7,-19,8,196,0,0,0,0,0,0,0,0,0,0,0,
0,0,-2046,-28,68,-7,-20,6,192,0,0,0,0,0,0,0,0,0,0,0,
0,0,-2044,-28,66,-7,-18,6,194,0,0,0,0,0,0,0,0,0,0,0,
0,0,-2047,-26,66,-8,-22,5,187,0,0,0,0,0,0,0,0,0,0,0,
0,0,-2048,-21,75,-8,-22,7,202,0,0,0,0,0,0,0,0,0,0,0,
0,0,-2050,-23,71,-6,-20,9,199,0,0,0,0,0,0,0,0,0,0,0,
0,0,-2049,-21,72,-5,-20,3,198,0,0,0,0,0,0,0,0,0,0,0,
0,0,-2052,-25,67,-2,-18,6,194,0,0,0,0,0,0,0,0,0,0,0,
0,0,-2047,-22,72,-5,-21,8,204,0,0,0,0,0,0,0,0,0,0,0,
0,0,-2052,-29,65,-6,-21,7,182,0,0,0,0,0,0,0,0,0,0,0,
0,0,-2047,-21,72,-6,-18,9,208,0,0,0,0,0,0,0,0,0,0,0,
0,0,-2048,-24,67,-8,-17,5,194,0,0,0,0,0,0,0,0,0,0,0,
0,0,-2047,-20,68,-6,-17,10,207,0,0,0,0,0,0,0,0,0,0,0,
0,0,-2052,-23,67,-4,-18,8,196,0,0,0,0,0,0,0,0,0,0,0,
0,0,-2050,-35,65,-3,-16,4,183,0,0,0,0,0,0,0,0,0,0,0,
0,0,-2048,-31,68,-4,-21,8,191,0,0,0,0,0,0,0,0,0,0,0,
0,0,-2042,-24,62,-6,-18,7,198,0,0,0,0,0,0,0,0,0,0,0,
0,0,-2054,-31,66,-4,-21,7,181,0,0,0,0,0,0,0,0,0,0,0,
0,0,-2052,-27,70,-2,-21,9,195,0,0,0,0,0,0,0,0,0,0,0,
0,0,-2055,-23,67,-2,-19,5,191,0,0,0,0,0,0,0,0,0,0,0,
0,0,-2050,-20,71,-4,-19,6,202,0,0,0,0,0,0,0,0,0,0,0,
0,0,-2051,-30,71,-8,-18,4,186,0,0,0,0,0,0,0,0,0,0,0,
0,0,-2046,-21,61,-7,-20,4,190,0,0,0,0,0,0,0,0,0,0,0,
0,0,-2049,-26,65,-4,-17,5,192,0,0,0,0,0,0,0,0,0,0,0,
0,0,-2047,-25,70,-5,-19,6,199,0,0,0,0,0,0,0,0,0,0,0,
0,0,-2049,-25,64,-4,-18,6,192,0,0,0,0,0,0,0,0,0,0,0,
0,0,-2048,-24,63,-8,-17,6,191,0,0,0,0,0,0,0,0,0,0,0,
0,0,-2045,-24,70,-6,-16,7,205,0,0,0,0,0,0,0,0,0,0,0,
0,0,-2046,-22,73,-5,-18,7,208,0,0,0,0,0,0,0,0,0,0,0,
0,0,-2047,-22,61,-4,-15,5,197,0,0,0,0,0,0,0,0,0,0,0,
0,0,-2053,-15,69,-9,-20,5,195,0,0,0,0,0,0,0,0,0,0,0,
0,0,-2052,-29,70,-5,-17,8,193,0,0,0,0,0,0,0,0,0,0,0,
0,0,-2046,-26,70,-8,-18,5,196,0,0,0,0,0,0,0,0,0,0,0,
0,0,-2043,-27,67,-5,-21,4,194,0,0,0,0,0,0,0,0,0,0,0,
0,0,-2042,-32,69,-8,-15,2,193,0,0,0,0,0,0,0,0,0,0,0,
0,0,-2045,-28,68,-6,-20,6,194,0,0,0,0,0,0,0,0,0,0,0,
0,0,-2054,-22,68,-7,-20,5,188,0,0,0,0,0,0,0,0,0,0,0,
0,0,-2052,-25,70,-6,-15,8,198,0,0,0,0,0,0,0,0,0,0,0,
0,0,-2049,-20,67,-5,-17,4,198,0,0,0,0,0,0,0,0,0,0,0,
0,0,-2046,-24,60,-10,-16,4,187,0,0,0,0,0,0,0,0,0,0,0,
0,0,-2050,-22,62,-6,-17,6,191,0,0,0,0,0,0,0,0,0,0,0,
0,0,-2053,-24,70,-11,-18,6,188,0,0,0,0,0,0,0,0,0,0,0,
0,0,-2049,-24,62,-8,-17,9,191,0,0,0,0,0,0,0,0,0,0,0,
0,0,-2049,-23,72,-6,-18,7,201,0,0,0,0,0,0,0,0,0,0,0,
0,0,-2042,-23,73,-4,-19,7,211,0,0,0,0,0,0,0,0,0,0,0,
0,0,-2040,-25,60,-6,-21,8,195,0,0,0,0,0,0,0,0,0,0,0,
0,0,-2044,-17,63,-5,-19,6,203,0,0,0,0,0,0,0,0,0,0,0,
0,0,-2046,-22,69,-9,-15,3,199,0,0,0,0,0,0,0,0,0,0,0,
0,0,-2046,-26,68,-4,-19,9,201,0,0,0,0,0,0,0,0,0,0,0,
0,0,-2043,-23,62,-9,-19,3,190,0,0,0,0,0,0,0,0,0,0,0,
0,0,-2047,-26,67,-5,-18,3,193,0,0,0,0,0,0,0,0,0,0,0,
0,0,-2047,-28,62,-10,-21,8,183,0,0,0,0,0,0,0,0,0,0,0,
0,0,-2047,-28,62,-10,-21,8,183,0,0,0,0,0,0,0,0,0,0,0,
0,0,-2045,-23,71,-5,-18,6,205,0,0,0,0,0,0,0,0,0,0,0,
0,0,-2051,-26,61,-9,-17,5,181,0,0,0,0,0,0,0,0,0,0,0,
0,0,-2049,-24,72,-6,-17,8,202,0,0,0,0,0,0,0,0,0,0,0,
0,0,-2049,-24,72,-6,-17,8,202,0,0,0,0,0,0,0,0,0,0,0,
0,0,-2050,-24,67,-7,-16,4,192,0,0,0,0,0,0,0,0,0,0,0,
0,0,-2044,-18,72,-8,-19,3,205,0,0,0,0,0,0,0,0,0,0,0,
0,0,-2045,-26,67,-8,-17,4,194,0,0,0,0,0,0,0,0,0,0,0,
0,0,-2046,-29,66,-7,-17,9,195,0,0,0,0,0,0,0,0,0,0,0,
0,0,-2046,-29,66,-1,-19,5,195,0,0,0,0,0,0,0,0,0,0,0,
0,0,-2053,-26,63,-7,-17,4,182,0,0,0,0,0,0,0,0,0,0,0,
0,0,-2051,-14,67,-5,-21,7,201,0,0,0,0,0,0,0,0,0,0,0,
0,0,-2052,-28,65,-5,-18,8,188,0,0,0,0,0,0,0,0,0,0,0,
0,0,-2041,-24,66,-5,-18,8,205,0,0,0,0,0,0,0,0,0,0,0,
0,0,-2049,-21,69,-7,-20,5,195,0,0,0,0,0,0,0,0,0,0,0,
0,0,-2042,-29,65,-5,-19,6,195,0,0,0,0,0,0,0,0,0,0,0,
0,0,-2050,-26,70,-6,-16,7,197,0,0,0,0,0,0,0,0,0,0,0,
0,0,-2048,-33,72,-7,-17,4,190,0,0,0,0,0,0,0,0,0,0,0,
0,0,-2050,-25,69,-8,-18,2,188,0,0,0,0,0,0,0,0,0,0,0,
0,0,-2050,-25,69,-7,-19,3,189,0,0,0,0,0,0,0,0,0,0,0,
0,0,-2047,-28,61,-11,-20,4,178,0,0,0,0,0,0,0,0,0,0,0,
0,0,-2045,-29,64,-4,-19,9,195,0,0,0,0,0,0,0,0,0,0,0,
0,0,-2048,-33,67,-7,-20,3,181,0,0,0,0,0,0,0,0,0,0,0,
0,0,-2050,-22,64,-6,-22,5,187,0,0,0,0,0,0,0,0,0,0,0,
0,0,-2047,-18,65,-6,-16,7,204,0,0,0,0,0,0,0,0,0,0,0,
0,0,-2052,-24,66,-6,-17,5,190,0,0,0,0,0,0,0,0,0,0,0,
0,0,-2048,-28,71,-8,-19,3,190,0,0,0,0,0,0,0,0,0,0,0,
0,0,-2050,-21,70,-9,-19,4,193,0,0,0,0,0,0,0,0,0,0,0,
0,0,-2047,-27,69,-3,-17,8,202,0,0,0,0,0,0,0,0,0,0,0,
0,0,-2041,-19,71,-4,-17,5,214,0,0,0,0,0,0,0,0,0,0,0,
0,0,-2047,-27,66,-6,-16,6,195,0,0,0,0,0,0,0,0,0,0,0,
0,0,-2038,-23,62,-5,-18,7,204,0,0,0,0,0,0,0,0,0,0,0,
0,0,-2050,-27,74,-8,-18,2,191,0,0,0,0,0,0,0,0,0,0,0,
0,0,-2050,-25,66,-11,-19,5,184,0,0,0,0,0,0,0,0,0,0,0,
0,0,-2052,-31,67,-5,-18,4,183,0,0,0,0,0,0,0,0,0,0,0,
0,0,-2046,-23,72,-5,-18,5,204,0,0,0,0,0,0,0,0,0,0,0,
0,0,-2044,-26,62,-9,-18,6,190,0,0,0,0,0,0,0,0,0,0,0,
0,0,-2055,-18,72,-9,-18,4,194,0,0,0,0,0,0,0,0,0,0,0,
0,0,-2043,-16,62,-8,-19,7,202,0,0,0,0,0,0,0,0,0,0,0,
0,0,-2048,-17,66,-6,-16,10,208,0,0,0,0,0,0,0,0,0,0,0,
0,0,-2045,-24,66,-6,-18,6,198,0,0,0,0,0,0,0,0,0,0,0,
0,0,-2046,-21,65,-8,-17,-1,190,0,0,0,0,0,0,0,0,0,0,0,
0,0,-2052,-21,67,-3,-19,5,195,0,0,0,0,0,0,0,0,0,0,0,
0,0,-2048,-25,66,-4,-21,8,195,0,0,0,0,0,0,0,0,0,0,0,
0,0,-2048,-25,62,-6,-19,1,184,0,0,0,0,0,0,0,0,0,0,0,
0,0,-2049,-22,69,-7,-18,8,199,0,0,0,0,0,0,0,0,0,0,0,
0,0,-2043,-17,66,-6,-18,6,207,0,0,0,0,0,0,0,0,0,0,0,
0,0,-2054,-23,66,-6,-18,2,185,0,0,0,0,0,0,0,0,0,0,0,
0,0,-2046,-29,66,-4,-19,3,190,0,0,0,0,0,0,0,0,0,0,0,
0,0,-2046,-22,68,-3,-19,4,201,0,0,0,0,0,0,0,0,0,0,0,
0,0,-2049,-25,71,-4,-17,6,200,0,0,0,0,0,0,0,0,0,0,0,
0,0,-2047,-23,65,-8,-16,8,198,0,0,0,0,0,0,0,0,0,0,0,
0,0,-2049,-29,66,-4,-17,4,189,0,0,0,0,0,0,0,0,0,0,0,
0,0,-2049,-20,66,-6,-19,8,198,0,0,0,0,0,0,0,0,0,0,0,
0,0,-2049,-23,67,-6,-17,6,196,0,0,0,0,0,0,0,0,0,0,0,
0,0,-2043,-27,69,-6,-19,5,198,0,0,0,0,0,0,0,0,0,0,0,
0,0,-2049,-21,63,-10,-17,8,192,0,0,0,0,0,0,0,0,0,0,0,
0,0,-2053,-25,62,-6,-15,3,184,0,0,0,0,0,0,0,0,0,0,0,
0,0,-2053,-24,66,-4,-18,3,188,0,0,0,0,0,0,0,0,0,0,0,
0,0,-2052,-21,65,-6,-18,6,192,0,0,0,0,0,0,0,0,0,0,0,
0,0,-2043,-21,73,-8,-19,7,208,0,0,0,0,0,0,0,0,0,0,0,
0,0,-2050,-26,70,-4,-19,5,194,0,0,0,0,0,0,0,0,0,0,0,
0,0,-2049,-26,68,-3,-20,4,192,0,0,0,0,0,0,0,0,0,0,0,
0,0,-2044,-19,62,-7,-18,8,201,0,0,0,0,0,0,0,0,0,0,0,
0,0,-2049,-16,69,-4,-15,3,206,0,0,0,0,0,0,0,0,0,0,0,
0,0,-2050,-19,71,-8,-19,6,199,0,0,0,0,0,0,0,0,0,0,0,
0,0,-2053,-21,70,-4,-19,8,199,0,0,0,0,0,0,0,0,0,0,0,
0,0,-2052,-24,72,-7,-21,8,194,0,0,0,0,0,0,0,0,0,0,0,
0,0,-2041,-23,66,-10,-22,4,193,0,0,0,0,0,0,0,0,0,0,0,
0,0,-2049,-20,67,-6,-19,4,195,0,0,0,0,0,0,0,0,0,0,0,
0,0,-2045,-29,65,-6,-17,6,193,0,0,0,0,0,0,0,0,0,0,0,
0,0,-2048,-18,74,-8,-16,1,204,0,0,0,0,0,0,0,0,0,0,0,
0,0,-2051,-28,68,-5,-20,2,184,0,0,0,0,0,0,0,0,0,0,0,
0,0,-2049,-17,64,-4,-18,9,203,0,0,0,0,0,0,0,0,0,0,0,
0,0,-2050,-29,68,-6,-20,5,186,0,0,0,0,0,0,0,0,0,0,0,
0,0,-2050,-20,62,-7,-18,5,190,0,0,0,0,0,0,0,0,0,0,0,
0,0,-2048,-28,77,-6,-20,5,199,0,0,0,0,0,0,0,0,0,0,0,
0,0,-2047,-31,63,-8,-18,4,182,0,0,0,0,0,0,0,0,0,0,0,
0,0,-2052,-28,70,-7,-21,4,184,0,0,0,0,0,0,0,0,0,0,0,
0,0,-2051,-24,66,-8,-17,4,188,0,0,0,0,0,0,0,0,0,0,0,
0,0,-2045,-21,63,-7,-19,2,192,0,0,0,0,0,0,0,0,0,0,0,
0,0,-2048,-26,63,-6,-16,7,193,0,0,0,0,0,0,0,0,0,0,0,
0,0,-2050,-23,70,-9,-18,6,194,0,0,0,0,0,0,0,0,0,0,0,
0,0,-2046,-23,70,-8,-20,6,198,0,0,0,0,0,0,0,0,0,0,0,
0,0,-2050,-28,69,-6,-18,4,189,0,0,0,0,0,0,0,0,0,0,0,
0,0,-2057,-29,64,-8,-18,5,175,0,0,0,0,0,0,0,0,0,0,0,
0,0,-2048,-24,68,-3,-17,5,200,0,0,0,0,0,0,0,0,0,0,0,
0,0,-2048,-31,64,-4,-17,8,191,0,0,0,0,0,0,0,0,0,0,0,
0,0,-2049,-25,73,-8,-17,5,197,0,0,0,0,0,0,0,0,0,0,0,
0,0,-2045,-28,71,-7,-21,12,201,0,0,0,0,0,0,0,0,0,0,0,
0,0,-2038,-24,64,-8,-17,7,203,0,0,0,0,0,0,0,0,0,0,0,
0,0,-2045,-25,71,-8,-16,6,202,0,0,0,0,0,0,0,0,0,0,0,
0,0,-2048,-21,71,-4,-15,5,207,0,0,0,0,0,0,0,0,0,0,0,
0,0,-2048,-22,63,-4,-15,5,198,0,0,0,0,0,0,0,0,0,0,0,
0,0,-2048,-29,67,-6,-18,5,190,0,0,0,0,0,0,0,0,0,0,0,
0,0,-2046,-19,66,-6,-17,5,202,0,0,0,0,0,0,0,0,0,0,0,
0,0,-2050,-27,67,-6,-15,4,191,0,0,0,0,0,0,0,0,0,0,0,
0,0,-2051,-17,62,-5,-20,7,194,0,0,0,0,0,0,0,0,0,0,0,
0,0,-2049,-23,74,-8,-17,8,203,0,0,0,0,0,0,0,0,0,0,0,
0,0,-2051,-22,72,-9,-17,6,197,0,0,0,0,0,0,0,0,0,0,0,
0,0,-2047,-21,71,-9,-18,8,203,0,0,0,0,0,0,0,0,0,0,0,
0,0,-2044,-30,71,-7,-19,7,197,0,0,0,0,0,0,0,0,0,0,0,
0,0,-2042,-28,68,-3,-20,4,198,0,0,0,0,0,0,0,0,0,0,0,
0,0,-2044,-25,67,-5,-16,6,202,0,0,0,0,0,0,0,0,0,0,0,
0,0,-2050,-25,75,-5,-19,2,196,0,0,0,0,0,0,0,0,0,0,0,
0,0,-2049,-18,69,-6,-19,8,203,0,0,0,0,0,0,0,0,0,0,0,
0,0,-2049,-30,64,-5,-17,6,187,0,0,0,0,0,0,0,0,0,0,0,
0,0,-2051,-23,58,-8,-20,-1,172,0,0,0,0,0,0,0,0,0,0,0,
0,0,-2053,-28,63,-8,-17,4,179,0,0,0,0,0,0,0,0,0,0,0,
0,0,-2041,-18,71,-6,-17,5,213,0,0,0,0,0,0,0,0,0,0,0,
0,0,-2041,-18,71,-6,-17,5,213,0,0,0,0,0,0,0,0,0,0,0,
0,0,-2045,-31,64,-5,-15,5,192,0,0,0,0,0,0,0,0,0,0,0,
0,0,-2046,-23,73,-6,-20,5,202,0,0,0,0,0,0,0,0,0,0,0,
0,0,-2053,-32,69,-7,-17,6,184,0,0,0,0,0,0,0,0,0,0,0,
0,0,-2053,-32,69,-7,-17,5,183,0,0,0,0,0,0,0,0,0,0,0,
0,0,-2051,-11,71,-6,-18,5,208,0,0,0,0,0,0,0,0,0,0,0,
0,0,-2045,-27,66,-8,-16,6,195,0,0,0,0,0,0,0,0,0,0,0,
0,0,-2044,-27,71,-7,-18,6,200,0,0,0,0,0,0,0,0,0,0,0,
0,0,-2051,-26,67,-6,-15,6,193,0,0,0,0,0,0,0,0,0,0,0,
0,0,-2048,-21,73,-7,-20,7,203,0,0,0,0,0,0,0,0,0,0,0,
0,0,-2048,-21,73,-5,-18,4,204,0,0,0,0,0,0,0,0,0,0,0,
0,0,-2043,-21,65,-9,-20,7,198,0,0,0,0,0,0,0,0,0,0,0,
0,0,-2047,-22,62,-7,-16,5,194,0,0,0,0,0,0,0,0,0,0,0,
0,0,-2053,-28,66,-7,-16,5,185,0,0,0,0,0,0,0,0,0,0,0,
0,0,-2041,-22,64,-3,-16,4,205,0,0,0,0,0,0,0,0,0,0,0,
0,0,-2054,-28,64,-6,-18,8,184,0,0,0,0,0,0,0,0,0,0,0,
0,0,-2048,-26,65,-5,-19,3,189,0,0,0,0,0,0,0,0,0,0,0,
0,0,-2047,-24,75,-10,-18,6,201,0,0,0,0,0,0,0,0,0,0,0,
0,0,-2048,-28,65,-6,-17,9,194,0,0,0,0,0,0,0,0,0,0,0,
0,0,-2047,-24,70,-8,-18,4,196,0,0,0,0,0,0,0,0,0,0,0,
0,0,-2052,-20,58,-7,-15,6,188,0,0,0,0,0,0,0,0,0,0,0,
0,0,-2054,-28,63,-6,-15,9,187,0,0,0,0,0,0,0,0,0,0,0,
0,0,-2046,-24,70,-3,-21,7,202,0,0,0,0,0,0,0,0,0,0,0,
0,0,-2038,-22,66,-7,-17,5,206,0,0,0,0,0,0,0,0,0,0,0,
0,0,-2044,-30,68,-10,-21,3,185,0,0,0,0,0,0,0,0,0,0,0,
0,0,-2049,-27,66,-9,-17,2,184,0,0,0,0,0,0,0,0,0,0,0,
0,0,-2049,-26,67,-8,-18,7,191,0,0,0,0,0,0,0,0,0,0,0,
0,0,-2053,-30,67,-10,-19,8,181,0,0,0,0,0,0,0,0,0,0,0,
0,0,-2046,-25,67,-5,-15,6,201,0,0,0,0,0,0,0,0,0,0,0,
0,0,-2049,-22,68,-8,-18,5,194,0,0,0,0,0,0,0,0,0,0,0,
0,0,-2050,-20,65,-6,-19,6,194,0,0,0,0,0,0,0,0,0,0,0,
0,0,-2050,-24,66,-5,-20,5,190,0,0,0,0,0,0,0,0,0,0,0,
0,0,-2047,-23,70,-6,-17,4,200,0,0,0,0,0,0,0,0,0,0,0,
0,0,-2048,-20,65,-3,-18,7,202,0,0,0,0,0,0,0,0,0,0,0,
0,0,-2048,-23,66,-8,-16,4,194,0,0,0,0,0,0,0,0,0,0,0,
0,0,-2051,-23,68,-4,-16,2,194,0,0,0,0,0,0,0,0,0,0,0,
0,0,-2042,-27,61,-9,-18,4,188,0,0,0,0,0,0,0,0,0,0,0,
0,0,-2048,-26,72,-7,-17,1,194,0,0,0,0,0,0,0,0,0,0,0,
0,0,-2048,-28,71,-7,-20,2,189,0,0,0,0,0,0,0,0,0,0,0,
0,0,-2047,-21,69,-7,-15,5,203,0,0,0,0,0,0,0,0,0,0,0,
0,0,-2050,-30,73,-8,-17,3,189,0,0,0,0,0,0,0,0,0,0,0,
0,0,-2047,-27,68,-6,-18,6,195,0,0,0,0,0,0,0,0,0,0,0,
0,0,-2055,-23,63,-5,-17,3,184,0,0,0,0,0,0,0,0,0,0,0,
0,0,-2049,-27,64,-8,-17,5,186,0,0,0,0,0,0,0,0,0,0,0,
0,0,-2052,-31,72,-4,-20,9,192,0,0,0,0,0,0,0,0,0,0,0,
0,0,-2048,-24,66,-9,-18,4,190,0,0,0,0,0,0,0,0,0,0,0,
0,0,-2047,-26,74,-10,-15,6,201,0,0,0,0,0,0,0,0,0,0,0,
0,0,-2049,-29,68,-6,-19,6,189,0,0,0,0,0,0,0,0,0,0,0,
0,0,-2040,-25,72,-5,-18,4,207,0,0,0,0,0,0,0,0,0,0,0,
0,0,-2046,-26,65,-3,-15,7,201,0,0,0,0,0,0,0,0,0,0,0,
0,0,-2053,-31,66,-8,-18,9,183,0,0,0,0,0,0,0,0,0,0,0,
0,0,-2055,-24,71,-7,-16,4,191,0,0,0,0,0,0,0,0,0,0,0,
0,0,-2052,-21,64,-5,-19,4,189,0,0,0,0,0,0,0,0,0,0,0,
0,0,-2050,-25,65,-8,-17,4,187,0,0,0,0,0,0,0,0,0,0,0,
0,0,-2049,-25,63,-4,-20,5,188,0,0,0,0,0,0,0,0,0,0,0,
0,0,-2047,-22,69,-8,-17,8,202,0,0,0,0,0,0,0,0,0,0,0,
0,0,-2048,-27,64,-6,-18,7,191,0,0,0,0,0,0,0,0,0,0,0,
0,0,-2042,-28,69,-7,-17,4,198,0,0,0,0,0,0,0,0,0,0,0,
0,0,-2047,-28,77,-4,-18,4,203,0,0,0,0,0,0,0,0,0,0,0,
0,0,-2051,-27,68,-8,-17,5,188,0,0,0,0,0,0,0,0,0,0,0,
0,0,-2050,-28,71,-2,-19,9,199,0,0,0,0,0,0,0,0,0,0,0,
0,0,-2049,-25,67,-6,-15,8,198,0,0,0,0,0,0,0,0,0,0,0,
0,0,-2043,-23,69,-11,-17,4,198,0,0,0,0,0,0,0,0,0,0,0,
0,0,-2050,-29,73,-7,-17,5,193,0,0,0,0,0,0,0,0,0,0,0,
0,0,-2044,-21,64,-7,-18,7,200,0,0,0,0,0,0,0,0,0,0,0,
0,0,-2050,-31,66,-7,-20,9,185,0,0,0,0,0,0,0,0,0,0,0,
0,0,-2048,-22,68,-5,-16,5,201,0,0,0,0,0,0,0,0,0,0,0,
0,0,-2044,-27,67,-5,-20,5,195,0,0,0,0,0,0,0,0,0,0,0,
0,0,-2049,-23,69,-5,-18,4,196,0,0,0,0,0,0,0,0,0,0,0,
0,0,-2049,-21,73,-4,-15,7,209,0,0,0,0,0,0,0,0,0,0,0,
0,0,-2048,-25,66,-12,-18,6,188,0,0,0,0,0,0,0,0,0,0,0,
0,0,-2048,-23,70,-7,-18,11,204,0,0,0,0,0,0,0,0,0,0,0,
0,0,-2041,-24,70,-6,-15,5,208,0,0,0,0,0,0,0,0,0,0,0,
0,0,-2047,-26,68,-8,-19,5,192,0,0,0,0,0,0,0,0,0,0,0,
0,0,-2051,-30,76,-10,-17,1,187,0,0,0,0,0,0,0,0,0,0,0,
0,0,-2049,-23,65,-5,-17,6,195,0,0,0,0,0,0,0,0,0,0,0,
0,0,-2043,-23,70,-6,-17,6,206,0,0,0,0,0,0,0,0,0,0,0,
0,0,-2051,-28,64,-9,-17,6,183,0,0,0,0,0,0,0,0,0,0,0,
0,0,-2052,-20,71,-4,-20,8,201,0,0,0,0,0,0,0,0,0,0,0,
0,0,-2045,-27,65,-7,-20,7,192,0,0,0,0,0,0,0,0,0,0,0,
0,0,-2048,-29,62,-5,-18,6,187,0,0,0,0,0,0,0,0,0,0,0,
0,0,-2048,-32,64,-5,-18,5,185,0,0,0,0,0,0,0,0,0,0,0,
0,0,-2047,-21,73,-11,-21,5,197,0,0,0,0,0,0,0,0,0,0,0,
0,0,-2050,-24,68,-7,-17,4,192,0,0,0,0,0,0,0,0,0,0,0,
0,0,-2051,-25,66,-8,-19,6,187,0,0,0,0,0,0,0,0,0,0,0,
0,0,-2046,-30,60,-8,-17,9,187,0,0,0,0,0,0,0,0,0,0,0,
0,0,-2048,-26,70,-6,-18,6,197,0,0,0,0,0,0,0,0,0,0,0,
0,0,-2046,-25,67,-9,-17,9,198,0,0,0,0,0,0,0,0,0,0,0,
0,0,-2047,-22,64,-7,-17,7,197,0,0,0,0,0,0,0,0,0,0,0,
0,0,-2044,-22,73,-6,-19,5,206,0,0,0,0,0,0,0,0,0,0,0,
0,0,-2048,-27,71,-7,-19,3,192,0,0,0,0,0,0,0,0,0,0,0,
0,0,-2054,-26,61,-5,-19,4,179,0,0,0,0,0,0,0,0,0,0,0,
0,0,-2052,-26,60,-4,-18,6,184,0,0,0,0,0,0,0,0,0,0,0,
0,0,-2043,-23,68,-6,-18,7,204,0,0,0,0,0,0,0,0,0,0,0,
0,0,-2044,-24,61,-5,-18,7,196,0,0,0,0,0,0,0,0,0,0,0,
0,0,-2053,-23,69,-5,-18,7,195,0,0,0,0,0,0,0,0,0,0,0,
0,0,-2056,-21,73,-9,-24,6,187,0,0,0,0,0,0,0,0,0,0,0,
0,0,-2045,-20,72,-6,-17,6,209,0,0,0,0,0,0,0,0,0,0,0,
0,0,-2051,-34,66,-6,-18,4,179,0,0,0,0,0,0,0,0,0,0,0,
0,0,-2047,-22,63,-3,-15,6,201,0,0,0,0,0,0,0,0,0,0,0,
0,0,-2050,-22,74,-6,-20,4,198,0,0,0,0,0,0,0,0,0,0,0,
0,0,-2049,-25,66,-5,-21,5,189,0,0,0,0,0,0,0,0,0,0,0,
0,0,-2047,-25,65,-7,-18,3,190,0,0,0,0,0,0,0,0,0,0,0,
0,0,-2048,-25,64,-4,-19,4,191,0,0,0,0,0,0,0,0,0,0,0,
0,0,-2049,-28,63,-5,-21,8,186,0,0,0,0,0,0,0,0,0,0,0,
0,0,-2055,-28,71,-5,-15,7,193,0,0,0,0,0,0,0,0,0,0,0,
0,0,-2054,-23,65,-3,-20,2,185,0,0,0,0,0,0,0,0,0,0,0,
0,0,-2046,-26,71,-4,-19,5,200,0,0,0,0,0,0,0,0,0,0,0,
0,0,-2054,-21,62,-7,-17,6,187,0,0,0,0,0,0,0,0,0,0,0,
0,0,-2037,-26,74,-7,-20,5,208,0,0,0,0,0,0,0,0,0,0,0,
0,0,-2037,-26,74,-7,-20,5,208,0,0,0,0,0,0,0,0,0,0,0,
0,0,-2041,-24,72,-8,-22,7,203,0,0,0,0,0,0,0,0,0,0,0,
0,0,-2057,-20,70,-5,-16,6,196,0,0,0,0,0,0,0,0,0,0,0,
0,0,-2053,-28,69,-7,-21,7,185,0,0,0,0,0,0,0,0,0,0,0,
0,0,-2053,-28,69,-6,-20,5,185,0,0,0,0,0,0,0,0,0,0,0,
0,0,-2045,-23,62,-4,-15,6,200,0,0,0,0,0,0,0,0,0,0,0,
0,0,-2051,-23,76,-4,-18,5,203,0,0,0,0,0,0,0,0,0,0,0,
0,0,-2043,-26,61,-6,-18,1,188,0,0,0,0,0,0,0,0,0,0,0,
0,0,-2043,-26,61,-6,-16,4,193,0,0,0,0,0,0,0,0,0,0,0,
0,0,-2044,-24,66,-5,-17,9,204,0,0,0,0,0,0,0,0,0,0,0,
0,0,-2044,-22,67,-5,-16,6,205,0,0,0,0,0,0,0,0,0,0,0,
0,0,-2042,-21,74,-6,-20,5,209,0,0,0,0,0,0,0,0,0,0,0,
0,0,-2052,-20,66,-5,-18,3,192,0,0,0,0,0,0,0,0,0,0,0,
0,0,-2048,-19,67,-3,-20,7,203,0,0,0,0,0,0,0,0,0,0,0,
0,0,-2047,-20,67,-5,-15,8,207,0,0,0,0,0,0,0,0,0,0,0,
0,0,-2044,-27,70,-6,-20,7,199,0,0,0,0,0,0,0,0,0,0,0,
0,0,-2047,-29,66,-5,-17,7,194,0,0,0,0,0,0,0,0,0,0,0,
0,0,-2050,-24,68,-7,-18,6,193,0,0,0,0,0,0,0,0,0,0,0,
0,0,-2044,-22,64,-5,-17,7,202,0,0,0,0,0,0,0,0,0,0,0,
0,0,-2047,-18,71,-6,-17,6,208,0,0,0,0,0,0,0,0,0,0,0,
0,0,-2050,-30,64,-9,-19,5,179,0,0,0,0,0,0,0,0,0,0,0,
0,0,-2046,-25,71,-10,-21,6,194,0,0,0,0,0,0,0,0,0,0,0,
0,0,-2048,-26,62,-8,-19,7,187,0,0,0,0,0,0,0,0,0,0,0,
0,0,-2046,-28,68,-7,-20,6,192,0,0,0,0,0,0,0,0,0,0,0,
0,0,-2050,-29,69,-6,-18,3,187,0,0,0,0,0,0,0,0,0,0,0,
0,0,-2045,-20,64,-6,-19,9,202,0,0,0,0,0,0,0,0,0,0,0,
0,0,-2046,-21,63,-6,-18,6,197,0,0,0,0,0,0,0,0,0,0,0,
0,0,-2044,-33,72,-8,-17,5,194,0,0,0,0,0,0,0,0,0,0,0,
0,0,-2047,-27,63,-5,-18,4,189,0,0,0,0,0,0,0,0,0,0,0,
0,0,-2049,-21,64,-5,-17,6,196,0,0,0,0,0,0,0,0,0,0,0,
0,0,-2045,-25,64,-4,-21,7,195,0,0,0,0,0,0,0,0,0,0,0,
0,0,-2042,-20,72,-4,-16,6,215,0,0,0,0,0,0,0,0,0,0,0,
0,0,-2048,-27,67,-5,-23,9,192,0,0,0,0,0,0,0,0,0,0,0,
0,0,-2043,-21,69,-5,-19,8,208,0,0,0,0,0,0,0,0,0,0,0,
0,0,-2049,-22,64,-5,-17,7,196,0,0,0,0,0,0,0,0,0,0,0,
0,0,-2046,-18,67,-5,-18,5,204,0,0,0,0,0,0,0,0,0,0,0,
0,0,-2048,-26,69,-6,-21,6,193,0,0,0,0,0,0,0,0,0,0,0,
0,0,-2044,-23,67,-6,-16,4,201,0,0,0,0,0,0,0,0,0,0,0,
0,0,-2048,-24,66,-5,-19,7,196,0,0,0,0,0,0,0,0,0,0,0,
0,0,-2048,-23,66,-6,-19,5,194,0,0,0,0,0,0,0,0,0,0,0,
0,0,-2052,-18,66,-3,-19,5,197,0,0,0,0,0,0,0,0,0,0,0,
0,0,-2043,-21,67,-5,-17,8,208,0,0,0,0,0,0,0,0,0,0,0,
0,0,-2049,-25,67,-9,-18,3,187,0,0,0,0,0,0,0,0,0,0,0,
0,0,-2054,-21,64,-5,-17,7,192,0,0,0,0,0,0,0,0,0,0,0,
0,0,-2046,-29,65,-7,-14,3,191,0,0,0,0,0,0,0,0,0,0,0,
0,0,-2048,-29,70,-6,-19,5,192,0,0,0,0,0,0,0,0,0,0,0,
0,0,-2042,-17,63,-5,-17,5,206,0,0,0,0,0,0,0,0,0,0,0,
0,0,-2048,-26,64,-11,-20,2,180,0,0,0,0,0,0,0,0,0,0,0,
0,0,-2047,-24,67,-5,-19,5,196,0,0,0,0,0,0,0,0,0,0,0,
0,0,-2045,-25,74,-8,-19,6,202,0,0,0,0,0,0,0,0,0,0,0,
0,0,-2051,-32,66,-8,-22,4,175,0,0,0,0,0,0,0,0,0,0,0,
0,0,-2054,-17,66,-7,-18,7,195,0,0,0,0,0,0,0,0,0,0,0,
0,0,-2046,-29,67,-5,-18,8,196,0,0,0,0,0,0,0,0,0,0,0,
0,0,-2045,-22,65,-6,-17,11,205,0,0,0,0,0,0,0,0,0,0,0,
0,0,-2047,-18,66,-6,-19,7,202,0,0,0,0,0,0,0,0,0,0,0,
0,0,-2044,-21,73,-7,-23,9,206,0,0,0,0,0,0,0,0,0,0,0,
0,0,-2050,-27,62,-9,-20,5,179,0,0,0,0,0,0,0,0,0,0,0,
0,0,-2045,-29,67,-3,-17,5,197,0,0,0,0,0,0,0,0,0,0,0,
0,0,-2050,-17,73,-9,-20,5,200,0,0,0,0,0,0,0,0,0,0,0,
0,0,-2053,-25,65,-9,-18,6,184,0,0,0,0,0,0,0,0,0,0,0,
0,0,-2047,-18,63,-6,-20,6,197,0,0,0,0,0,0,0,0,0,0,0,
0,0,-2049,-26,66,-5,-19,8,193,0,0,0,0,0,0,0,0,0,0,0,
0,0,-2052,-26,67,-3,-19,4,189,0,0,0,0,0,0,0,0,0,0,0,
0,0,-2044,-23,69,-7,-17,8,205,0,0,0,0,0,0,0,0,0,0,0,
0,0,-2050,-26,73,-3,-17,7,202,0,0,0,0,0,0,0,0,0,0,0,
0,0,-2057,-31,71,-9,-21,3,174,0,0,0,0,0,0,0,0,0,0,0,
0,0,-2044,-26,65,-8,-18,7,195,0,0,0,0,0,0,0,0,0,0,0,
0,0,-2051,-24,62,-8,-19,5,183,0,0,0,0,0,0,0,0,0,0,0,
0,0,-2044,-30,63,-6,-19,8,191,0,0,0,0,0,0,0,0,0,0,0,
0,0,-2048,-27,65,-8,-18,8,191,0,0,0,0,0,0,0,0,0,0,0,
0,0,-2045,-28,72,-7,-18,5,198,0,0,0,0,0,0,0,0,0,0,0,
0,0,-2054,-17,56,-5,-18,6,186,0,0,0,0,0,0,0,0,0,0,0,
0,0,-2050,-19,66,-9,-19,7,194,0,0,0,0,0,0,0,0,0,0,0,
0,0,-2052,-28,58,-3,-17,8,184,0,0,0,0,0,0,0,0,0,0,0,
0,0,-2047,-22,72,-6,-14,9,211,0,0,0,0,0,0,0,0,0,0,0,
0,0,-2047,-32,67,-10,-22,2,177,0,0,0,0,0,0,0,0,0,0,0,
0,0,-2052,-30,69,-9,-17,3,182,0,0,0,0,0,0,0,0,0,0,0,
0,0,-2048,-30,63,-7,-18,6,185,0,0,0,0,0,0,0,0,0,0,0,
0,0,-2056,-25,67,-6,-18,3,183,0,0,0,0,0,0,0,0,0,0,0,
0,0,-2044,-25,69,-7,-21,3,194,0,0,0,0,0,0,0,0,0,0,0,
0,0,-2049,-26,68,-6,-17,3,191,0,0,0,0,0,0,0,0,0,0,0,
0,0,-2050,-21,68,-10,-18,7,194,0,0,0,0,0,0,0,0,0,0,0,
0,0,-2045,-29,67,-6,-15,3,194,0,0,0,0,0,0,0,0,0,0,0,
0,0,-2046,-28,66,-6,-17,2,190,0,0,0,0,0,0,0,0,0,0,0,
0,0,-2052,-26,67,-6,-20,6,187,0,0,0,0,0,0,0,0,0,0,0,
0,0,-2048,-32,64,-2,-20,8,189,0,0,0,0,0,0,0,0,0,0,0,
0,0,-2051,-21,64,-5,-20,6,191,0,0,0,0,0,0,0,0,0,0,0,
0,0,-2054,-22,62,-10,-19,6,181,0,0,0,0,0,0,0,0,0,0,0,
0,0,-2052,-24,66,-8,-17,7,190,0,0,0,0,0,0,0,0,0,0,0,
0,0,-2043,-24,69,-5,-20,3,199,0,0,0,0,0,0,0,0,0,0,0,
0,0,-2051,-18,71,-5,-18,6,203,0,0,0,0,0,0,0,0,0,0,0,
0,0,-2049,-28,67,-7,-20,6,187,0,0,0,0,0,0,0,0,0,0,0,
0,0,-2049,-28,74,-4,-15,8,204,0,0,0,0,0,0,0,0,0,0,0,
0,0,-2055,-26,70,-5,-17,6,191,0,0,0,0,0,0,0,0,0,0,0,
0,0,-2047,-29,64,-6,-17,5,189,0,0,0,0,0,0,0,0,0,0,0,
0,0,-2048,-27,66,-1,-17,7,199,0,0,0,0,0,0,0,0,0,0,0,
0,0,-2044,-28,55,-10,-18,7,181,0,0,0,0,0,0,0,0,0,0,0,
0,0,-2045,-29,73,-8,-21,6,195,0,0,0,0,0,0,0,0,0,0,0,
0,0,-2046,-26,69,-5,-17,7,201,0,0,0,0,0,0,0,0,0,0,0,
0,0,-2045,-26,68,-3,-19,7,201,0,0,0,0,0,0,0,0,0,0,0,
0,0,-2046,-31,60,-7,-17,6,184,0,0,0,0,0,0,0,0,0,0,0,
0,0,-2047,-31,75,-4,-21,6,197,0,0,0,0,0,0,0,0,0,0,0,
0,0,-2046,-26,71,-7,-18,3,196,0,0,0,0,0,0,0,0,0,0,0,
0,0,-2051,-29,72,-7,-19,10,194,0,0,0,0,0,0,0,0,0,0,0,
0,0,-2039,-28,55,-9,-18,5,185,0,0,0,0,0,0,0,0,0,0,0,
0,0,-2050,-30,73,-3,-19,7,196,0,0,0,0,0,0,0,0,0,0,0,
0,0,-2053,-28,72,-10,-18,6,187,0,0,0,0,0,0,0,0,0,0,0,
0,0,-2046,-22,71,-6,-18,5,203,0,0,0,0,0,0,0,0,0,0,0,
0,0,-2049,-21,61,-6,-18,8,193,0,0,0,0,0,0,0,0,0,0,0,
0,0,-2052,-25,67,-5,-18,9,194,0,0,0,0,0,0,0,0,0,0,0,
0,0,-2041,-25,73,-7,-17,7,209,0,0,0,0,0,0,0,0,0,0,0,
0,0,-2041,-25,73,-7,-17,7,209,0,0,0,0,0,0,0,0,0,0,0,
0,0,-2054,-23,69,-8,-18,7,191,0,0,0,0,0,0,0,0,0,0,0,
0,0,-2044,-23,69,-3,-17,6,207,0,0,0,0,0,0,0,0,0,0,0,
0,0,-2046,-24,69,-4,-20,4,198,0,0,0,0,0,0,0,0,0,0,0,
0,0,-2046,-24,69,-6,-15,4,201,0,0,0,0,0,0,0,0,0,0,0,
0,0,-2045,-20,70,-1,-18,8,213,0,0,0,0,0,0,0,0,0,0,0,
0,0,-2049,-20,67,-7,-17,3,195,0,0,0,0,0,0,0,0,0,0,0,
0,0,-2048,-33,67,-4,-17,5,189,0,0,0,0,0,0,0,0,0,0,0,
0,0,-2048,-33,67,-5,-21,5,184,0,0,0,0,0,0,0,0,0,0,0,
0,0,-2044,-29,65,-5,-18,6,194,0,0,0,0,0,0,0,0,0,0,0,
0,0,-2050,-20,64,-7,-20,4,189,0,0,0,0,0,0,0,0,0,0,0,
0,0,-2044,-27,67,-7,-21,3,190,0,0,0,0,0,0,0,0,0,0,0,
0,0,-2049,-25,73,-8,-19,8,198,0,0,0,0,0,0,0,0,0,0,0,
0,0,-2043,-26,67,-6,-20,5,196,0,0,0,0,0,0,0,0,0,0,0,
0,0,-2048,-23,71,-6,-20,4,197,0,0,0,0,0,0,0,0,0,0,0,
0,0,-2046,-25,67,-9,-18,5,193,0,0,0,0,0,0,0,0,0,0,0,
0,0,-2047,-20,70,-5,-20,6,203,0,0,0,0,0,0,0,0,0,0,0,
0,0,-2048,-32,66,-7,-17,8,189,0,0,0,0,0,0,0,0,0,0,0,
0,0,-2052,-29,63,-5,-17,6,184,0,0,0,0,0,0,0,0,0,0,0,
0,0,-2043,-25,72,-7,-22,5,199,0,0,0,0,0,0,0,0,0,0,0,
0,0,-2054,-18,68,-6,-19,5,194,0,0,0,0,0,0,0,0,0,0,0,
0,0,-2046,-28,67,-7,-17,4,192,0,0,0,0,0,0,0,0,0,0,0,
0,0,-2048,-23,64,-8,-20,4,188,0,0,0,0,0,0,0,0,0,0,0,
0,0,-2050,-22,70,-5,-18,5,198,0,0,0,0,0,0,0,0,0,0,0,
0,0,-2052,-22,70,-3,-17,5,199,0,0,0,0,0,0,0,0,0,0,0,
0,0,-2042,-26,60,-8,-20,3,186,0,0,0,0,0,0,0,0,0,0,0,
0,0,-2046,-24,69,-5,-17,4,200,0,0,0,0,0,0,0,0,0,0,0,
0,0,-2054,-21,63,-5,-16,7,192,0,0,0,0,0,0,0,0,0,0,0,
0,0,-2044,-20,63,-6,-17,9,204,0,0,0,0,0,0,0,0,0,0,0,
0,0,-2047,-25,73,-7,-18,7,202,0,0,0,0,0,0,0,0,0,0,0,
0,0,-2061,-21,69,-6,-19,6,186,0,0,0,0,0,0,0,0,0,0,0,
0,0,-2046,-26,69,-3,-18,6,201,0,0,0,0,0,0,0,0,0,0,0,
0,0,-2044,-23,70,-9,-20,10,203,0,0,0,0,0,0,0,0,0,0,0,
0,0,-2051,-23,61,-7,-19,5,184,0,0,0,0,0,0,0,0,0,0,0,
0,0,-2052,-29,67,-7,-20,3,180,0,0,0,0,0,0,0,0,0,0,0,
0,0,-2050,-24,72,-3,-17,4,200,0,0,0,0,0,0,0,0,0,0,0,
0,0,-2052,-27,76,-5,-17,6,199,0,0,0,0,0,0,0,0,0,0,0,
0,0,-2053,-25,71,-8,-19,7,191,0,0,0,0,0,0,0,0,0,0,0,
0,0,-2046,-33,63,-8,-16,4,183,0,0,0,0,0,0,0,0,0,0,0,
0,0,-2049,-24,70,-9,-17,5,194,0,0,0,0,0,0,0,0,0,0,0,
0,0,-2053,-20,71,-7,-18,5,196,0,0,0,0,0,0,0,0,0,0,0,
0,0,-2046,-21,67,-6,-18,10,205,0,0,0,0,0,0,0,0,0,0,0,
0,0,-2043,-24,66,-2,-16,4,204,0,0,0,0,0,0,0,0,0,0,0,
0,0,-2045,-29,69,-11,-19,6,190,0,0,0,0,0,0,0,0,0,0,0,
0,0,-2045,-30,68,-4,-19,7,196,0,0,0,0,0,0,0,0,0,0,0,
0,0,-2050,-29,72,-6,-15,5,195,0,0,0,0,0,0,0,0,0,0,0,
0,0,-2048,-26,69,-7,-18,5,194,0,0,0,0,0,0,0,0,0,0,0,
0,0,-2051,-26,59,-7,-17,5,181,0,0,0,0,0,0,0,0,0,0,0,
0,0,-2051,-25,71,-7,-18,8,196,0,0,0,0,0,0,0,0,0,0,0,
0,0,-2055,-24,67,-4,-18,8,192,0,0,0,0,0,0,0,0,0,0,0,
0,0,-2046,-22,67,-10,-18,1,191,0,0,0,0,0,0,0,0,0,0,0,
0,0,-2046,-25,71,-2,-15,4,206,0,0,0,0,0,0,0,0,0,0,0,
0,0,-2050,-19,72,-7,-18,6,202,0,0,0,0,0,0,0,0,0,0,0,
0,0,-2043,-20,72,-7,-21,5,205,0,0,0,0,0,0,0,0,0,0,0,
0,0,-2047,-22,67,-3,-19,8,203,0,0,0,0,0,0,0,0,0,0,0,
0,0,-2044,-29,69,-8,-19,3,191,0,0,0,0,0,0,0,0,0,0,0,
0,0,-2050,-21,71,-6,-16,9,205,0,0,0,0,0,0,0,0,0,0,0,
0,0,-2049,-17,69,-6,-22,3,196,0,0,0,0,0,0,0,0,0,0,0,
0,0,-2051,-30,68,-8,-17,4,184,0,0,0,0,0,0,0,0,0,0,0,
0,0,-2051,-21,71,-6,-15,6,202,0,0,0,0,0,0,0,0,0,0,0,
0,0,-2042,-22,65,-6,-20,4,198,0,0,0,0,0,0,0,0,0,0,0,
0,0,-2047,-30,69,-8,-18,7,192,0,0,0,0,0,0,0,0,0,0,0,
0,0,-2044,-21,69,-6,-19,5,203,0,0,0,0,0,0,0,0,0,0,0,
0,0,-2049,-28,65,-6,-18,7,189,0,0,0,0,0,0,0,0,0,0,0,
0,0,-2048,-26,62,-6,-17,8,192,0,0,0,0,0,0,0,0,0,0,0,
0,0,-2046,-24,73,-6,-17,8,207,0,0,0,0,0,0,0,0,0,0,0,
0,0,-2046,-27,65,-6,-19,5,191,0,0,0,0,0,0,0,0,0,0,0,
0,0,-2047,-23,64,-6,-19,5,193,0,0,0,0,0,0,0,0,0,0,0,
0,0,-2052,-22,62,-6,-18,6,188,0,0,0,0,0,0,0,0,0,0,0,
0,0,-2053,-32,58,-12,-18,2,163,0,0,0,0,0,0,0,0,0,0,0,
0,0,-2053,-18,68,-3,-18,8,202,0,0,0,0,0,0,0,0,0,0,0,
0,0,-2044,-22,62,-6,-18,4,195,0,0,0,0,0,0,0,0,0,0,0,
0,0,-2042,-30,68,-7,-18,6,196,0,0,0,0,0,0,0,0,0,0,0,
0,0,-2052,-23,69,-6,-18,5,193,0,0,0,0,0,0,0,0,0,0,0,
0,0,-2044,-19,61,-5,-18,6,200,0,0,0,0,0,0,0,0,0,0,0,
0,0,-2048,-19,65,-4,-20,9,202,0,0,0,0,0,0,0,0,0,0,0,
0,0,-2050,-28,76,-6,-20,13,203,0,0,0,0,0,0,0,0,0,0,0,
0,0,-2042,-21,69,-6,-20,3,202,0,0,0,0,0,0,0,0,0,0,0,
0,0,-2049,-26,63,-9,-19,8,186,0,0,0,0,0,0,0,0,0,0,0,
0,0,-2047,-25,63,-4,-20,7,193,0,0,0,0,0,0,0,0,0,0,0,
0,0,-2055,-20,66,-5,-16,9,197,0,0,0,0,0,0,0,0,0,0,0,
0,0,-2040,-16,65,-4,-19,4,209,0,0,0,0,0,0,0,0,0,0,0,
0,0,-2047,-25,64,-6,-17,3,191,0,0,0,0,0,0,0,0,0,0,0,
0,0,-2050,-32,72,-5,-20,8,191,0,0,0,0,0,0,0,0,0,0,0,
0,0,-2050,-24,68,-8,-18,6,192,0,0,0,0,0,0,0,0,0,0,0,
0,0,-2052,-24,69,-4,-18,6,195,0,0,0,0,0,0,0,0,0,0,0,
0,0,-2047,-28,68,-4,-19,4,193,0,0,0,0,0,0,0,0,0,0,0,
0,0,-2045,-23,68,-7,-19,7,200,0,0,0,0,0,0,0,0,0,0,0,
0,0,-2049,-19,57,-8,-18,3,184,0,0,0,0,0,0,0,0,0,0,0,
0,0,-2047,-18,65,-8,-20,6,197,0,0,0,0,0,0,0,0,0,0,0,
0,0,-2051,-27,70,-6,-18,6,192,0,0,0,0,0,0,0,0,0,0,0,
0,0,-2048,-25,63,-9,-16,2,186,0,0,0,0,0,0,0,0,0,0,0,
0,0,-2047,-23,75,-8,-19,5,202,0,0,0,0,0,0,0,0,0,0,0,
0,0,-2048,-26,63,-9,-16,8,191,0,0,0,0,0,0,0,0,0,0,0,
0,0,-2052,-22,67,-8,-20,5,188,0,0,0,0,0,0,0,0,0,0,0,
0,0,-2053,-25,63,-8,-18,9,186,0,0,0,0,0,0,0,0,0,0,0,
0,0,-2051,-28,64,-6,-17,6,186,0,0,0,0,0,0,0,0,0,0,0,
0,0,-2047,-21,64,-6,-19,4,194,0,0,0,0,0,0,0,0,0,0,0,
0,0,-2049,-33,72,-5,-15,5,193,0,0,0,0,0,0,0,0,0,0,0,
0,0,-2045,-26,71,-5,-19,7,202,0,0,0,0,0,0,0,0,0,0,0,
0,0,-2047,-24,72,-5,-18,8,205,0,0,0,0,0,0,0,0,0,0,0,
0,0,-2045,-26,68,-9,-18,1,190,0,0,0,0,0,0,0,0,0,0,0,
0,0,-2048,-28,64,-6,-18,7,190,0,0,0,0,0,0,0,0,0,0,0,
0,0,-2050,-29,65,-3,-19,8,190,0,0,0,0,0,0,0,0,0,0,0,
0,0,-2048,-28,66,-8,-21,5,185,0,0,0,0,0,0,0,0,0,0,0,
0,0,-2050,-29,73,-4,-18,4,194,0,0,0,0,0,0,0,0,0,0,0,
0,0,-2055,-26,72,-8,-19,5,187,0,0,0,0,0,0,0,0,0,0,0,
0,0,-2055,-26,72,-8,-19,5,187,0,0,0,0,0,0,0,0,0,0,0,
0,0,-2048,-26,62,-4,-19,6,190,0,0,0,0,0,0,0,0,0,0,0,
0,0,-2046,-19,64,-8,-20,5,195,0,0,0,0,0,0,0,0,0,0,0,
0,0,-2050,-29,69,-8,-15,5,190,0,0,0,0,0,0,0,0,0,0,0,
0,0,-2050,-18,68,-8,-20,4,194,0,0,0,0,0,0,0,0,0,0,0,
0,0,-2044,-22,70,-5,-16,7,209,0,0,0,0,0,0,0,0,0,0,0,
0,0,-2044,-22,70,-6,-19,3,201,0,0,0,0,0,0,0,0,0,0,0,
0,0,-2050,-22,68,-4,-20,5,195,0,0,0,0,0,0,0,0,0,0,0,
0,0,-2052,-21,66,-7,-17,8,195,0,0,0,0,0,0,0,0,0,0,0,
0,0,-2052,-32,71,-10,-19,3,179,0,0,0,0,0,0,0,0,0,0,0,
0,0,-2052,-32,71,-9,-18,5,183,0,0,0,0,0,0,0,0,0,0,0,
0,0,-2053,-23,65,-9,-19,7,186,0,0,0,0,0,0,0,0,0,0,0,
0,0,-2051,-26,67,-4,-18,6,192,0,0,0,0,0,0,0,0,0,0,0,
0,0,-2047,-30,69,-7,-16,4,192,0,0,0,0,0,0,0,0,0,0,0,
0,0,-2048,-27,69,-3,-20,5,195,0,0,0,0,0,0,0,0,0,0,0,
0,0,-2051,-18,67,-7,-21,8,196,0,0,0,0,0,0,0,0,0,0,0,
0,0,-2053,-29,67,-6,-20,5,182,0,0,0,0,0,0,0,0,0,0,0,
0,0,-2038,-23,74,-7,-18,2,209,0,0,0,0,0,0,0,0,0,0,0,
0,0,-2050,-29,68,-4,-17,5,191,0,0,0,0,0,0,0,0,0,0,0,
0,0,-2047,-23,66,-4,-20,12,203,0,0,0,0,0,0,0,0,0,0,0,
0,0,-2049,-26,68,-6,-18,7,194,0,0,0,0,0,0,0,0,0,0,0,
0,0,-2047,-23,65,-4,-18,7,199,0,0,0,0,0,0,0,0,0,0,0,
0,0,-2052,-29,65,-8,-16,7,185,0,0,0,0,0,0,0,0,0,0,0,
0,0,-2051,-27,75,-7,-19,7,196,0,0,0,0,0,0,0,0,0,0,0,
0,0,-2050,-23,64,-6,-20,8,191,0,0,0,0,0,0,0,0,0,0,0,
0,0,-2062,-24,68,-7,-19,2,176,0,0,0,0,0,0,0,0,0,0,0,
0,0,-2045,-24,64,-5,-20,4,193,0,0,0,0,0,0,0,0,0,0,0,
0,0,-2051,-23,59,-9,-19,9,184,0,0,0,0,0,0,0,0,0,0,0,
0,0,-2048,-22,71,-7,-20,5,198,0,0,0,0,0,0,0,0,0,0,0,
0,0,-2052,-27,63,-8,-18,5,181,0,0,0,0,0,0,0,0,0,0,0,
0,0,-2053,-20,62,-6,-16,8,193,0,0,0,0,0,0,0,0,0,0,0,
0,0,-2048,-27,65,-7,-20,4,186,0,0,0,0,0,0,0,0,0,0,0,
0,0,-2048,-22,74,-6,-17,3,203,0,0,0,0,0,0,0,0,0,0,0,
0,0,-2048,-30,71,-6,-18,8,196,0,0,0,0,0,0,0,0,0,0,0,
0,0,-2052,-23,70,-6,-17,6,196,0,0,0,0,0,0,0,0,0,0,0,
0,0,-2052,-22,66,-8,-20,7,189,0,0,0,0,0,0,0,0,0,0,0,
0,0,-2052,-25,62,-8,-20,7,182,0,0,0,0,0,0,0,0,0,0,0,
0,0,-2050,-27,65,-4,-18,1,185,0,0,0,0,0,0,0,0,0,0,0,
0,0,-2047,-26,67,-8,-19,9,195,0,0,0,0,0,0,0,0,0,0,0,
0,0,-2048,-28,63,-9,-19,4,182,0,0,0,0,0,0,0,0,0,0,0,
0,0,-2045,-25,64,-9,-18,5,191,0,0,0,0,0,0,0,0,0,0,0,
0,0,-2049,-26,65,-7,-19,4,186,0,0,0,0,0,0,0,0,0,0,0,
0,0,-2055,-28,70,-4,-17,7,191,0,0,0,0,0,0,0,0,0,0,0,
0,0,-2048,-23,65,-5,-17,5,196,0,0,0,0,0,0,0,0,0,0,0,
0,0,-2047,-32,69,-9,-19,5,186,0,0,0,0,0,0,0,0,0,0,0,
0,0,-2047,-22,70,-7,-20,4,197,0,0,0,0,0,0,0,0,0,0,0,
0,0,-2046,-26,68,-7,-17,8,199,0,0,0,0,0,0,0,0,0,0,0,
0,0,-2055,-21,66,-6,-18,5,189,0,0,0,0,0,0,0,0,0,0,0,
0,0,-2045,-22,66,-8,-17,5,198,0,0,0,0,0,0,0,0,0,0,0,
0,0,-2048,-25,71,-3,-19,5,200,0,0,0,0,0,0,0,0,0,0,0,
0,0,-2046,-25,64,-4,-18,11,201,0,0,0,0,0,0,0,0,0,0,0,
0,0,-2054,-24,59,-3,-20,8,184,0,0,0,0,0,0,0,0,0,0,0,
0,0,-2047,-31,60,-11,-18,4,176,0,0,0,0,0,0,0,0,0,0,0,
0,0,-2051,-24,61,-5,-20,4,183,0,0,0,0,0,0,0,0,0,0,0,
0,0,-2051,-27,66,-5,-18,6,189,0,0,0,0,0,0,0,0,0,0,0,
0,0,-2055,-16,71,-9,-18,6,197,0,0,0,0,0,0,0,0,0,0,0,
0,0,-2053,-19,67,-5,-18,3,193,0,0,0,0,0,0,0,0,0,0,0,
0,0,-2050,-23,69,-5,-17,5,197,0,0,0,0,0,0,0,0,0,0,0,
0,0,-2048,-23,66,-6,-14,4,198,0,0,0,0,0,0,0,0,0,0,0,
0,0,-2049,-25,67,-7,-17,4,191,0,0,0,0,0,0,0,0,0,0,0,
0,0,-2045,-25,69,-7,-15,6,202,0,0,0,0,0,0,0,0,0,0,0,
0,0,-2044,-18,71,-5,-18,7,212,0,0,0,0,0,0,0,0,0,0,0,
0,0,-2046,-25,68,-7,-16,12,205,0,0,0,0,0,0,0,0,0,0,0,
0,0,-2049,-19,65,-7,-20,5,193,0,0,0,0,0,0,0,0,0,0,0,
0,0,-2045,-20,73,-8,-18,4,205,0,0,0,0,0,0,0,0,0,0,0,
0,0,-2045,-20,67,-7,-21,6,199,0,0,0,0,0,0,0,0,0,0,0,
0,0,-2054,-22,61,-7,-22,5,179,0,0,0,0,0,0,0,0,0,0,0,
0,0,-2052,-21,66,-5,-21,6,191,0,0,0,0,0,0,0,0,0,0,0,
0,0,-2047,-20,64,-8,-18,6,196,0,0,0,0,0,0,0,0,0,0,0,
0,0,-2049,-24,69,-6,-14,6,200,0,0,0,0,0,0,0,0,0,0,0,
0,0,-2045,-33,63,-7,-18,5,184,0,0,0,0,0,0,0,0,0,0,0,
0,0,-2053,-21,66,-4,-20,7,193,0,0,0,0,0,0,0,0,0,0,0,
0,0,-2052,-20,65,-6,-17,4,192,0,0,0,0,0,0,0,0,0,0,0,
0,0,-2054,-27,68,-4,-17,4,188,0,0,0,0,0,0,0,0,0,0,0,
0,0,-2051,-20,68,-8,-16,5,196,0,0,0,0,0,0,0,0,0,0,0,
0,0,-2048,-25,66,-8,-17,8,195,0,0,0,0,0,0,0,0,0,0,0,
0,0,-2047,-20,60,-8,-18,6,192,0,0,0,0,0,0,0,0,0,0,0,
0,0,-2052,-18,63,-6,-20,7,192,0,0,0,0,0,0,0,0,0,0,0,
0,0,-2046,-25,73,-3,-18,8,208,0,0,0,0,0,0,0,0,0,0,0,
0,0,-2043,-23,60,-4,-19,6,196,0,0,0,0,0,0,0,0,0,0,0,
0,0,-2045,-31,76,-5,-15,5,204,0,0,0,0,0,0,0,0,0,0,0,
0,0,-2052,-35,63,-5,-19,6,176,0,0,0,0,0,0,0,0,0,0,0,
0,0,-2051,-29,71,-5,-18,6,192,0,0,0,0,0,0,0,0,0,0,0,
0,0,-2049,-22,74,-5,-21,5,200,0,0,0,0,0,0,0,0,0,0,0,
0,0,-2048,-23,69,-5,-17,5,200,0,0,0,0,0,0,0,0,0,0,0,
0,0,-2053,-21,73,-10,-20,5,192,0,0,0,0,0,0,0,0,0,0,0,
0,0,-2051,-34,71,-5,-16,8,191,0,0,0,0,0,0,0,0,0,0,0,
0,0,-2048,-31,63,-8,-18,9,186,0,0,0,0,0,0,0,0,0,0,0,
0,0,-2047,-21,63,-5,-17,8,200,0,0,0,0,0,0,0,0,0,0,0,
0,0,-2047,-17,69,-8,-17,7,206,0,0,0,0,0,0,0,0,0,0,0,
0,0,-2050,-25,64,-8,-19,9,189,0,0,0,0,0,0,0,0,0,0,0,
0,0,-2046,-26,64,-5,-18,5,193,0,0,0,0,0,0,0,0,0,0,0,
0,0,-2046,-33,69,-6,-21,8,190,0,0,0,0,0,0,0,0,0,0,0,
0,0,-2051,-25,66,-8,-18,3,185,0,0,0,0,0,0,0,0,0,0,0,
0,0,-2046,-26,69,-4,-20,6,198,0,0,0,0,0,0,0,0,0,0,0,
0,0,-2050,-22,66,-8,-20,6,190,0,0,0,0,0,0,0,0,0,0,0,
0,0,-2053,-25,67,-8,-17,6,188,0,0,0,0,0,0,0,0,0,0,0,
0,0,-2055,-29,67,-7,-16,7,185,0,0,0,0,0,0,0,0,0,0,0,
0,0,-2050,-23,73,-6,-18,7,201,0,0,0,0,0,0,0,0,0,0,0,
0,0,-2052,-23,72,-6,-18,7,198,0,0,0,0,0,0,0,0,0,0,0,
0,0,-2048,-23,75,-5,-18,8,208,0,0,0,0,0,0,0,0,0,0,0,
0,0,-2053,-35,61,-7,-16,2,170,0,0,0,0,0,0,0,0,0,0,0,
0,0,-2043,-29,67,-10,-19,7,192,0,0,0,0,0,0,0,0,0,0,0,
0,0,-2050,-22,58,-4,-20,8,188,0,0,0,0,0,0,0,0,0,0,0,
0,0,-2056,-19,66,-7,-19,3,186,0,0,0,0,0,0,0,0,0,0,0,
0,0,-2042,-24,66,-6,-21,9,201,0,0,0,0,0,0,0,0,0,0,0,
0,0,-2048,-26,72,-6,-20,8,199,0,0,0,0,0,0,0,0,0,0,0,
0,0,-2045,-27,62,-5,-21,7,190,0,0,0,0,0,0,0,0,0,0,0,
0,0,-2048,-18,73,-4,-22,4,204,0,0,0,0,0,0,0,0,0,0,0,
0,0,-2051,-27,63,-7,-18,5,183,0,0,0,0,0,0,0,0,0,0,0,
0,0,-2051,-27,63,-7,-18,5,183,0,0,0,0,0,0,0,0,0,0,0,
0,0,-2054,-26,66,-7,-18,5,184,0,0,0,0,0,0,0,0,0,0,0,
0,0,-2046,-31,65,-8,-20,4,183,0,0,0,0,0,0,0,0,0,0,0,
0,0,-2048,-25,73,-8,-19,7,199,0,0,0,0,0,0,0,0,0,0,0,
0,0,-2048,-25,71,-6,-18,6,199,0,0,0,0,0,0,0,0,0,0,0,
0,0,-2051,-22,70,-6,-18,4,195,0,0,0,0,0,0,0,0,0,0,0,
0,0,-2051,-22,70,-9,-18,3,191,0,0,0,0,0,0,0,0,0,0,0,
0,0,-2048,-26,66,-4,-17,7,197,0,0,0,0,0,0,0,0,0,0,0,
0,0,-2051,-25,71,-6,-20,7,194,0,0,0,0,0,0,0,0,0,0,0,
0,0,-2049,-21,64,-3,-17,5,197,0,0,0,0,0,0,0,0,0,0,0,
0,0,-2049,-21,64,-7,-17,3,191,0,0,0,0,0,0,0,0,0,0,0,
0,0,-2051,-25,69,-7,-20,5,189,0,0,0,0,0,0,0,0,0,0,0,
0,0,-2040,-23,71,-6,-21,7,207,0,0,0,0,0,0,0,0,0,0,0,
0,0,-2044,-24,65,-8,-17,4,195,0,0,0,0,0,0,0,0,0,0,0,
0,0,-2049,-20,64,-6,-14,5,198,0,0,0,0,0,0,0,0,0,0,0,
0,0,-2045,-31,63,-10,-18,8,186,0,0,0,0,0,0,0,0,0,0,0,
0,0,-2044,-23,62,-7,-16,8,199,0,0,0,0,0,0,0,0,0,0,0,
0,0,-2048,-34,68,-5,-16,10,194,0,0,0,0,0,0,0,0,0,0,0,
0,0,-2044,-30,64,-6,-18,4,189,0,0,0,0,0,0,0,0,0,0,0,
0,0,-2042,-28,66,-9,-19,8,195,0,0,0,0,0,0,0,0,0,0,0,
0,0,-2054,-29,66,-5,-19,6,183,0,0,0,0,0,0,0,0,0,0,0,
0,0,-2050,-19,65,-4,-16,5,199,0,0,0,0,0,0,0,0,0,0,0,
0,0,-2053,-23,70,-7,-18,8,195,0,0,0,0,0,0,0,0,0,0,0,
0,0,-2045,-23,72,-5,-17,7,208,0,0,0,0,0,0,0,0,0,0,0,
0,0,-2048,-20,69,-5,-20,9,204,0,0,0,0,0,0,0,0,0,0,0,
0,0,-2048,-25,70,-7,-21,7,195,0,0,0,0,0,0,0,0,0,0,0,
0,0,-2054,-26,67,-8,-16,5,186,0,0,0,0,0,0,0,0,0,0,0,
0,0,-2051,-26,67,-8,-16,7,191,0,0,0,0,0,0,0,0,0,0,0,
0,0,-2051,-25,66,-3,-21,4,188,0,0,0,0,0,0,0,0,0,0,0,
0,0,-2046,-19,63,-10,-17,5,195,0,0,0,0,0,0,0,0,0,0,0,
0,0,-2041,-26,63,-6,-20,7,196,0,0,0,0,0,0,0,0,0,0,0,
0,0,-2048,-25,70,-7,-19,7,197,0,0,0,0,0,0,0,0,0,0,0,
0,0,-2048,-29,64,-7,-21,3,181,0,0,0,0,0,0,0,0,0,0,0,
0,0,-2054,-22,70,-1,-19,4,196,0,0,0,0,0,0,0,0,0,0,0,
0,0,-2046,-18,65,-6,-18,10,206,0,0,0,0,0,0,0,0,0,0,0,
0,0,-2046,-25,68,-4,-19,6,199,0,0,0,0,0,0,0,0,0,0,0,
0,0,-2046,-23,66,-5,-19,8,200,0,0,0,0,0,0,0,0,0,0,0,
0,0,-2048,-27,71,-4,-20,7,198,0,0,0,0,0,0,0,0,0,0,0,
0,0,-2050,-32,69,-4,-17,5,189,0,0,0,0,0,0,0,0,0,0,0,
0,0,-2053,-16,68,-8,-17,5,197,0,0,0,0,0,0,0,0,0,0,0,
0,0,-2049,-23,75,-7,-18,8,204,0,0,0,0,0,0,0,0,0,0,0,
0,0,-2047,-23,63,-5,-18,5,194,0,0,0,0,0,0,0,0,0,0,0,
0,0,-2048,-21,68,-7,-17,2,196,0,0,0,0,0,0,0,0,0,0,0,
0,0,-2046,-23,61,-4,-19,6,194,0,0,0,0,0,0,0,0,0,0,0,
0,0,-2051,-28,71,-7,-16,6,193,0,0,0,0,0,0,0,0,0,0,0,
0,0,-2044,-20,67,-6,-16,5,205,0,0,0,0,0,0,0,0,0,0,0,
0,0,-2046,-19,71,-4,-20,3,204,0,0,0,0,0,0,0,0,0,0,0,
0,0,-2049,-27,63,-5,-16,7,191,0,0,0,0,0,0,0,0,0,0,0,
0,0,-2049,-23,65,-8,-19,6,190,0,0,0,0,0,0,0,0,0,0,0,
0,0,-2049,-22,71,-10,-17,2,193,0,0,0,0,0,0,0,0,0,0,0,
0,0,-2046,-23,60,-5,-20,6,191,0,0,0,0,0,0,0,0,0,0,0,
0,0,-2051,-21,64,-8,-18,10,194,0,0,0,0,0,0,0,0,0,0,0,
0,0,-2047,-20,70,-8,-16,4,202,0,0,0,0,0,0,0,0,0,0,0,
0,0,-2051,-29,66,-6,-18,4,184,0,0,0,0,0,0,0,0,0,0,0,
0,0,-2048,-24,67,-6,-15,6,199,0,0,0,0,0,0,0,0,0,0,0,
0,0,-2047,-23,60,-9,-17,5,188,0,0,0,0,0,0,0,0,0,0,0,
0,0,-2047,-27,63,-7,-20,5,186,0,0,0,0,0,0,0,0,0,0,0,
0,0,-2053,-20,69,-9,-19,6,192,0,0,0,0,0,0,0,0,0,0,0,
0,0,-2041,-28,71,-7,-19,7,202,0,0,0,0,0,0,0,0,0,0,0,
0,0,-2045,-27,65,-7,-20,5,190,0,0,0,0,0,0,0,0,0,0,0,
0,0,-2045,-16,74,-6,-19,8,215,0,0,0,0,0,0,0,0,0,0,0,
0,0,-2047,-23,67,-7,-18,6,197,0,0,0,0,0,0,0,0,0,0,0,
0,0,-2045,-22,67,-5,-19,6,201,0,0,0,0,0,0,0,0,0,0,0,
0,0,-2048,-26,68,-7,-21,8,193,0,0,0,0,0,0,0,0,0,0,0,
0,0,-2046,-32,72,-4,-19,4,194,0,0,0,0,0,0,0,0,0,0,0,
0,0,-2052,-31,62,-7,-19,2,173,0,0,0,0,0,0,0,0,0,0,0,
0,0,-2051,-25,65,-2,-18,7,194,0,0,0,0,0,0,0,0,0,0,0,
0,0,-2047,-24,71,-2,-21,5,201,0,0,0,0,0,0,0,0,0,0,0,
0,0,-2048,-21,59,-6,-17,6,192,0,0,0,0,0,0,0,0,0,0,0,
0,0,-2048,-25,67,-2,-18,5,198,0,0,0,0,0,0,0,0,0,0,0,
0,0,-2051,-22,67,-5,-17,9,199,0,0,0,0,0,0,0,0,0,0,0,
0,0,-2044,-30,68,-6,-17,5,195,0,0,0,0,0,0,0,0,0,0,0,
0,0,-2052,-26,65,-4,-20,7,188,0,0,0,0,0,0,0,0,0,0,0,
0,0,-2045,-29,65,-7,-19,6,190,0,0,0,0,0,0,0,0,0,0,0,
0,0,-2043,-21,62,-6,-19,7,199,0,0,0,0,0,0,0,0,0,0,0,
0,0,-2045,-28,72,-8,-19,2,193,0,0,0,0,0,0,0,0,0,0,0,
0,0,-2050,-24,69,-9,-16,4,192,0,0,0,0,0,0,0,0,0,0,0,
0,0,-2046,-27,68,-5,-20,5,194,0,0,0,0,0,0,0,0,0,0,0,
0,0,-2042,-24,62,-7,-16,7,199,0,0,0,0,0,0,0,0,0,0,0,
0,0,-2047,-30,66,-7,-17,6,190,0,0,0,0,0,0,0,0,0,0,0,
0,0,-2054,-24,68,-5,-19,9,193,0,0,0,0,0,0,0,0,0,0,0,
0,0,-2046,-31,71,-1,-17,5,200,0,0,0,0,0,0,0,0,0,0,0,
0,0,-2050,-29,71,-6,-17,9,196,0,0,0,0,0,0,0,0,0,0,0,
0,0,-2048,-23,71,-4,-19,5,201,0,0,0,0,0,0,0,0,0,0,0,
0,0,-2052,-28,67,-6,-19,4,184,0,0,0,0,0,0,0,0,0,0,0,
0,0,-2049,-28,67,-5,-18,5,190,0,0,0,0,0,0,0,0,0,0,0,
0,0,-2046,-23,73,-6,-20,7,204,0,0,0,0,0,0,0,0,0,0,0,
0,0,-2050,-28,64,-6,-20,5,183,0,0,0,0,0,0,0,0,0,0,0,
0,0,-2049,-18,63,-8,-16,5,195,0,0,0,0,0,0,0,0,0,0,0,
0,0,-2055,-26,70,-8,-17,6,188,0,0,0,0,0,0,0,0,0,0,0,
0,0,-2050,-28,62,-9,-18,7,182,0,0,0,0,0,0,0,0,0,0,0,
0,0,-2044,-27,67,-8,-16,2,193,0,0,0,0,0,0,0,0,0,0,0,
0,0,-2045,-25,68,-7,-16,3,197,0,0,0,0,0,0,0,0,0,0,0,
0,0,-2045,-20,63,-6,-18,6,199,0,0,0,0,0,0,0,0,0,0,0,
0,0,-2045,-27,64,-9,-18,5,189,0,0,0,0,0,0,0,0,0,0,0,
0,0,-2047,-25,69,-8,-17,7,198,0,0,0,0,0,0,0,0,0,0,0,
0,0,-2047,-22,71,-9,-18,5,199,0,0,0,0,0,0,0,0,0,0,0,
0,0,-2047,-30,73,-8,-18,5,194,0,0,0,0,0,0,0,0,0,0,0,
0,0,-2050,-23,62,-7,-18,7,189,0,0,0,0,0,0,0,0,0,0,0,
0,0,-2049,-27,66,-7,-18,4,187,0,0,0,0,0,0,0,0,0,0,0,
0,0,-2049,-26,69,-9,-22,7,188,0,0,0,0,0,0,0,0,0,0,0,
0,0,-2044,-21,69,-4,-18,3,204,0,0,0,0,0,0,0,0,0,0,0,
0,0,-2049,-24,68,-7,-20,6,192,0,0,0,0,0,0,0,0,0,0,0,
0,0,-2046,-23,70,-3,-18,6,205,0,0,0,0,0,0,0,0,0,0,0,
0,0,-2053,-26,70,-8,-19,5,187,0,0,0,0,0,0,0,0,0,0,0,
0,0,-2051,-20,66,-10,-20,5,188,0,0,0,0,0,0,0,0,0,0,0,
0,0,-2054,-29,66,-3,-19,8,187,0,0,0,0,0,0,0,0,0,0,0,
0,0,-2044,-26,76,-11,-19,3,198,0,0,0,0,0,0,0,0,0,0,0,
0,0,-2048,-25,66,-7,-19,6,192,0,0,0,0,0,0,0,0,0,0,0,
0,0,-2052,-29,68,-7,-16,10,192,0,0,0,0,0,0,0,0,0,0,0,
0,0,-2052,-29,68,-7,-16,10,192,0,0,0,0,0,0,0,0,0,0,0,
0,0,-2051,-28,60,-9,-20,1,171,0,0,0,0,0,0,0,0,0,0,0,
0,0,-2042,-32,63,-5,-19,3,187,0,0,0,0,0,0,0,0,0,0,0,
0,0,-2044,-26,69,-3,-19,8,204,0,0,0,0,0,0,0,0,0,0,0,
0,0,-2044,-26,69,-3,-19,8,204,0,0,0,0,0,0,0,0,0,0,0,
0,0,-2050,-21,64,-6,-17,6,194,0,0,0,0,0,0,0,0,0,0,0,
0,0,-2049,-22,75,-8,-18,6,202,0,0,0,0,0,0,0,0,0,0,0,
0,0,-2047,-24,65,-6,-21,7,193,0,0,0,0,0,0,0,0,0,0,0,
0,0,-2050,-26,65,-6,-16,8,193,0,0,0,0,0,0,0,0,0,0,0,
0,0,-2048,-22,73,-7,-16,4,203,0,0,0,0,0,0,0,0,0,0,0,
0,0,-2048,-22,73,-7,-21,6,200,0,0,0,0,0,0,0,0,0,0,0,
0,0,-2048,-30,66,-7,-17,8,191,0,0,0,0,0,0,0,0,0,0,0,
0,0,-2046,-27,65,-7,-21,6,189,0,0,0,0,0,0,0,0,0,0,0,
0,0,-2050,-20,66,-5,-18,5,196,0,0,0,0,0,0,0,0,0,0,0,
0,0,-2049,-24,62,-4,-17,8,194,0,0,0,0,0,0,0,0,0,0,0,
0,0,-2042,-27,71,-8,-18,6,201,0,0,0,0,0,0,0,0,0,0,0,
0,0,-2047,-26,64,-5,-18,5,192,0,0,0,0,0,0,0,0,0,0,0,
0,0,-2043,-26,70,-5,-20,5,200,0,0,0,0,0,0,0,0,0,0,0,
0,0,-2045,-21,57,-9,-15,7,193,0,0,0,0,0,0,0,0,0,0,0,
0,0,-2052,-30,69,-8,-18,6,185,0,0,0,0,0,0,0,0,0,0,0,
0,0,-2050,-23,64,-7,-18,2,186,0,0,0,0,0,0,0,0,0,0,0,
0,0,-2050,-21,64,-7,-18,2,188,0,0,0,0,0,0,0,0,0,0,0,
0,0,-2049,-29,58,-5,-16,7,184,0,0,0,0,0,0,0,0,0,0,0,
0,0,-2050,-23,70,-6,-16,10,203,0,0,0,0,0,0,0,0,0,0,0,
0,0,-2048,-26,69,-7,-19,7,195,0,0,0,0,0,0,0,0,0,0,0,
0,0,-2051,-28,68,-8,-16,5,188,0,0,0,0,0,0,0,0,0,0,0,
0,0,-2050,-24,63,-7,-17,7,190,0,0,0,0,0,0,0,0,0,0,0,
0,0,-2050,-23,66,-7,-17,5,192,0,0,0,0,0,0,0,0,0,0,0,
0,0,-2048,-28,66,-7,-16,4,190,0,0,0,0,0,0,0,0,0,0,0,
0,0,-2051,-26,69,-5,-20,6,191,0,0,0,0,0,0,0,0,0,0,0,
0,0,-2043,-27,71,-7,-15,7,205,0,0,0,0,0,0,0,0,0,0,0,
0,0,-2045,-22,75,-6,-17,2,206,0,0,0,0,0,0,0,0,0,0,0,
0,0,-2050,-16,66,-3,-19,5,201,0,0,0,0,0,0,0,0,0,0,0,
0,0,-2045,-25,74,-8,-16,9,208,0,0,0,0,0,0,0,0,0,0,0,
0,0,-2047,-26,68,-5,-19,4,194,0,0,0,0,0,0,0,0,0,0,0,
0,0,-2052,-27,62,-6,-15,7,187,0,0,0,0,0,0,0,0,0,0,0,
0,0,-2044,-17,66,-6,-16,1,203,0,0,0,0,0,0,0,0,0,0,0,
0,0,-2042,-20,61,-7,-20,4,195,0,0,0,0,0,0,0,0,0,0,0,
0,0,-2049,-24,66,-6,-17,6,194,0,0,0,0,0,0,0,0,0,0,0,
0,0,-2048,-32,64,-6,-22,2,177,0,0,0,0,0,0,0,0,0,0,0,
0,0,-2045,-19,55,-8,-19,4,187,0,0,0,0,0,0,0,0,0,0,0,
0,0,-2049,-16,65,-6,-17,5,200,0,0,0,0,0,0,0,0,0,0,0,
0,0,-2047,-28,72,-7,-20,4,193,0,0,0,0,0,0,0,0,0,0,0,
0,0,-2044,-23,69,-4,-20,6,203,0,0,0,0,0,0,0,0,0,0,0,
0,0,-2048,-30,68,-2,-18,8,197,0,0,0,0,0,0,0,0,0,0,0,
0,0,-2049,-22,69,-5,-18,5,198,0,0,0,0,0,0,0,0,0,0,0,
0,0,-2048,-27,62,-8,-19,5,184,0,0,0,0,0,0,0,0,0,0,0,
0,0,-2041,-23,61,-8,-16,8,200,0,0,0,0,0,0,0,0,0,0,0,
0,0,-2050,-25,64,-7,-21,4,183,0,0,0,0,0,0,0,0,0,0,0,
0,0,-2051,-23,67,-4,-18,3,192,0,0,0,0,0,0,0,0,0,0,0,
0,0,-2048,-23,57,-7,-18,5,185,0,0,0,0,0,0,0,0,0,0,0,
0,0,-2048,-29,65,-3,-19,6,191,0,0,0,0,0,0,0,0,0,0,0,
0,0,-2050,-28,68,-10,-17,4,185,0,0,0,0,0,0,0,0,0,0,0,
0,0,-2046,-24,70,-4,-20,7,202,0,0,0,0,0,0,0,0,0,0,0,
0,0,-2046,-27,68,-5,-19,8,198,0,0,0,0,0,0,0,0,0,0,0,
0,0,-2052,-29,66,-8,-18,6,183,0,0,0,0,0,0,0,0,0,0,0,
0,0,-2047,-22,72,-7,-17,4,202,0,0,0,0,0,0,0,0,0,0,0,
0,0,-2050,-23,63,-5,-20,6,189,0,0,0,0,0,0,0,0,0,0,0,
0,0,-2045,-18,69,-10,-18,9,206,0,0,0,0,0,0,0,0,0,0,0,
0,0,-2052,-21,62,-6,-16,7,192,0,0,0,0,0,0,0,0,0,0,0,
0,0,-2050,-24,66,-7,-17,6,192,0,0,0,0,0,0,0,0,0,0,0,
0,0,-2046,-23,65,-4,-20,4,195,0,0,0,0,0,0,0,0,0,0,0,
0,0,-2050,-23,68,-10,-18,6,191,0,0,0,0,0,0,0,0,0,0,0,
0,0,-2048,-20,72,-8,-16,5,204,0,0,0,0,0,0,0,0,0,0,0,
0,0,-2045,-21,69,-9,-17,4,200,0,0,0,0,0,0,0,0,0,0,0,
0,0,-2046,-32,65,-4,-19,5,188,0,0,0,0,0,0,0,0,0,0,0,
0,0,-2051,-21,65,-9,-22,5,185,0,0,0,0,0,0,0,0,0,0,0,
0,0,-2052,-19,67,-7,-19,7,195,0,0,0,0,0,0,0,0,0,0,0,
0,0,-2054,-24,65,-4,-18,7,190,0,0,0,0,0,0,0,0,0,0,0,
0,0,-2044,-16,66,-7,-19,7,206,0,0,0,0,0,0,0,0,0,0,0,
0,0,-2043,-26,65,-10,-20,4,189,0,0,0,0,0,0,0,0,0,0,0,
0,0,-2049,-16,59,-7,-19,10,196,0,0,0,0,0,0,0,0,0,0,0,
0,0,-2047,-33,70,-6,-18,5,190,0,0,0,0,0,0,0,0,0,0,0,
0,0,-2044,-18,72,-6,-20,7,210,0,0,0,0,0,0,0,0,0,0,0,
0,0,-2049,-27,68,-5,-16,7,196,0,0,0,0,0,0,0,0,0,0,0,
0,0,-2049,-19,69,-6,-19,4,198,0,0,0,0,0,0,0,0,0,0,0,
0,0,-2049,-27,70,-3,-18,4,195,0,0,0,0,0,0,0,0,0,0,0,
0,0,-2048,-24,71,-5,-18,5,200,0,0,0,0,0,0,0,0,0,0,0,
0,0,-2048,-27,72,-9,-18,7,196,0,0,0,0,0,0,0,0,0,0,0,
0,0,-2050,-26,66,-5,-18,6,191,0,0,0,0,0,0,0,0,0,0,0,
0,0,-2051,-29,62,-5,-18,8,185,0,0,0,0,0,0,0,0,0,0,0,
0,0,-2046,-26,75,-6,-18,6,204,0,0,0,0,0,0,0,0,0,0,0,
0,0,-2048,-26,68,-6,-19,7,195,0,0,0,0,0,0,0,0,0,0,0,
0,0,-2047,-20,66,-8,-19,8,199,0,0,0,0,0,0,0,0,0,0,0,
0,0,-2053,-25,63,-9,-18,4,180,0,0,0,0,0,0,0,0,0,0,0,
0,0,-2054,-26,67,-6,-19,5,185,0,0,0,0,0,0,0,0,0,0,0,
0,0,-2056,-31,67,-5,-18,8,183,0,0,0,0,0,0,0,0,0,0,0,
0,0,-2049,-27,69,-8,-17,3,189,0,0,0,0,0,0,0,0,0,0,0,
0,0,-2049,-23,67,-6,-15,6,198,0,0,0,0,0,0,0,0,0,0,0,
0,0,-2044,-31,61,-6,-20,4,183,0,0,0,0,0,0,0,0,0,0,0,
0,0,-2046,-26,67,-5,-18,7,198,0,0,0,0,0,0,0,0,0,0,0,
0,0,-2044,-32,62,-6,-21,4,182,0,0,0,0,0,0,0,0,0,0,0,
0,0,-2047,-28,63,-7,-16,2,186,0,0,0,0,0,0,0,0,0,0,0,
0,0,-2052,-23,66,-5,-19,4,189,0,0,0,0,0,0,0,0,0,0,0,
0,0,-2048,-29,75,-7,-16,5,199,0,0,0,0,0,0,0,0,0,0,0,
0,0,-2047,-22,62,-6,-19,4,191,0,0,0,0,0,0,0,0,0,0,0,
0,0,-2048,-25,66,-4,-18,4,194,0,0,0,0,0,0,0,0,0,0,0,
0,0,-2050,-14,71,-6,-15,7,211,0,0,0,0,0,0,0,0,0,0,0,
0,0,-2049,-22,66,-6,-21,3,189,0,0,0,0,0,0,0,0,0,0,0,
0,0,-2047,-23,65,-5,-20,6,195,0,0,0,0,0,0,0,0,0,0,0,
0,0,-2044,-27,63,-7,-17,5,192,0,0,0,0,0,0,0,0,0,0,0,
0,0,-2046,-37,60,-6,-17,3,176,0,0,0,0,0,0,0,0,0,0,0,
0,0,-2048,-27,61,-6,-17,8,190,0,0,0,0,0,0,0,0,0,0,0,
0,0,-2046,-24,75,-6,-21,5,202,0,0,0,0,0,0,0,0,0,0,0,
0,0,-2051,-28,68,-8,-19,4,184,0,0,0,0,0,0,0,0,0,0,0,
0,0,-2047,-22,62,-8,-18,7,193,0,0,0,0,0,0,0,0,0,0,0,
0,0,-2051,-28,67,-5,-19,6,188,0,0,0,0,0,0,0,0,0,0,0,
0,0,-2053,-30,62,-2,-17,6,184,0,0,0,0,0,0,0,0,0,0,0,
0,0,-2045,-21,63,-10,-19,5,192,0,0,0,0,0,0,0,0,0,0,0,
0,0,-2045,-21,63,-10,-19,5,192,0,0,0,0,0,0,0,0,0,0,0,
0,0,-2047,-24,59,-7,-20,8,188,0,0,0,0,0,0,0,0,0,0,0,
0,0,-2052,-23,60,-5,-18,7,187,0,0,0,0,0,0,0,0,0,0,0,
0,0,-2045,-28,69,-8,-18,8,197,0,0,0,0,0,0,0,0,0,0,0,
0,0,-2045,-28,69,-8,-18,8,197,0,0,0,0,0,0,0,0,0,0,0,
0,0,-2045,-16,63,-8,-16,5,202,0,0,0,0,0,0,0,0,0,0,0,
0,0,-2049,-26,68,-4,-18,8,197,0,0,0,0,0,0,0,0,0,0,0,
0,0,-2047,-33,70,-4,-18,5,192,0,0,0,0,0,0,0,0,0,0,0,
0,0,-2053,-25,75,-6,-17,2,194,0,0,0,0,0,0,0,0,0,0,0,
0,0,-2046,-31,66,-8,-19,6,187,0,0,0,0,0,0,0,0,0,0,0,
0,0,-2046,-31,66,-7,-19,9,191,0,0,0,0,0,0,0,0,0,0,0,
0,0,-2057,-24,68,-7,-17,10,191,0,0,0,0,0,0,0,0,0,0,0,
0,0,-2045,-29,72,-8,-17,3,195,0,0,0,0,0,0,0,0,0,0,0,
0,0,-2049,-28,65,-4,-19,4,187,0,0,0,0,0,0,0,0,0,0,0,
0,0,-2051,-23,67,-9,-16,7,193,0,0,0,0,0,0,0,0,0,0,0,
0,0,-2052,-33,69,-8,-19,5,180,0,0,0,0,0,0,0,0,0,0,0,
0,0,-2051,-23,65,-7,-19,5,188,0,0,0,0,0,0,0,0,0,0,0,
0,0,-2050,-23,68,-6,-18,4,193,0,0,0,0,0,0,0,0,0,0,0,
0,0,-2047,-22,64,-2,-18,10,204,0,0,0,0,0,0,0,0,0,0,0,
0,0,-2050,-22,69,-7,-17,10,201,0,0,0,0,0,0,0,0,0,0,0,
0,0,-2045,-27,65,-6,-20,6,192,0,0,0,0,0,0,0,0,0,0,0,
0,0,-2048,-23,64,-9,-18,5,190,0,0,0,0,0,0,0,0,0,0,0,
0,0,-2039,-26,64,-4,-19,8,203,0,0,0,0,0,0,0,0,0,0,0,
0,0,-2052,-26,74,-5,-17,6,198,0,0,0,0,0,0,0,0,0,0,0,
0,0,-2053,-22,75,-6,-19,4,197,0,0,0,0,0,0,0,0,0,0,0,
0,0,-2044,-22,64,-5,-21,7,198,0,0,0,0,0,0,0,0,0,0,0,
0,0,-2042,-29,65,-6,-15,5,197,0,0,0,0,0,0,0,0,0,0,0,
0,0,-2041,-22,65,-3,-17,6,207,0,0,0,0,0,0,0,0,0,0,0,
0,0,-2045,-25,67,-5,-19,3,195,0,0,0,0,0,0,0,0,0,0,0,
0,0,-2051,-19,67,-6,-18,5,196,0,0,0,0,0,0,0,0,0,0,0,
0,0,-2046,-25,69,-6,-16,7,202,0,0,0,0,0,0,0,0,0,0,0,
0,0,-2051,-29,67,-5,-19,5,186,0,0,0,0,0,0,0,0,0,0,0,
0,0,-2045,-23,62,-7,-19,4,191,0,0,0,0,0,0,0,0,0,0,0,
0,0,-2047,-21,67,-6,-22,7,197,0,0,0,0,0,0,0,0,0,0,0,
0,0,-2047,-28,62,-6,-18,7,189,0,0,0,0,0,0,0,0,0,0,0,
0,0,-2043,-23,66,-6,-18,6,201,0,0,0,0,0,0,0,0,0,0,0,
0,0,-2048,-24,63,-4,-20,6,192,0,0,0,0,0,0,0,0,0,0,0,
0,0,-2051,-25,70,-8,-17,5,192,0,0,0,0,0,0,0,0,0,0,0,
0,0,-2052,-28,63,-7,-18,6,182,0,0,0,0,0,0,0,0,0,0,0,
0,0,-2049,-21,62,-6,-18,4,190,0,0,0,0,0,0,0,0,0,0,0,
0,0,-2052,-25,65,-6,-19,6,187,0,0,0,0,0,0,0,0,0,0,0,
0,0,-2046,-24,76,-8,-16,6,207,0,0,0,0,0,0,0,0,0,0,0,
0,0,-2050,-22,63,-12,-18,4,183,0,0,0,0,0,0,0,0,0,0,0,
0,0,-2044,-25,66,-9,-20,4,191,0,0,0,0,0,0,0,0,0,0,0,
0,0,-2048,-29,65,-2,-16,5,194,0,0,0,0,0,0,0,0,0,0,0,
0,0,-2044,-27,65,-7,-13,6,199,0,0,0,0,0,0,0,0,0,0,0,
0,0,-2053,-25,59,-7,-16,5,181,0,0,0,0,0,0,0,0,0,0,0,
0,0,-2047,-27,63,-6,-19,6,189,0,0,0,0,0,0,0,0,0,0,0,
0,0,-2043,-24,63,-10,-18,4,191,0,0,0,0,0,0,0,0,0,0,0,
0,0,-2045,-26,68,-5,-20,8,199,0,0,0,0,0,0,0,0,0,0,0,
0,0,-2051,-31,65,-9,-18,8,182,0,0,0,0,0,0,0,0,0,0,0,
0,0,-2053,-16,66,-6,-17,5,197,0,0,0,0,0,0,0,0,0,0,0,
0,0,-2047,-20,61,-6,-19,8,196,0,0,0,0,0,0,0,0,0,0,0,
0,0,-2046,-28,66,-5,-17,5,194,0,0,0,0,0,0,0,0,0,0,0,
0,0,-2046,-27,67,-4,-18,7,198,0,0,0,0,0,0,0,0,0,0,0,
0,0,-2053,-27,67,-4,-18,6,189,0,0,0,0,0,0,0,0,0,0,0,
0,0,-2051,-30,71,-3,-18,7,194,0,0,0,0,0,0,0,0,0,0,0,
0,0,-2049,-23,67,-6,-19,8,196,0,0,0,0,0,0,0,0,0,0,0,
0,0,-2051,-21,59,-5,-20,6,186,0,0,0,0,0,0,0,0,0,0,0,
0,0,-2047,-22,64,-5,-16,6,199,0,0,0,0,0,0,0,0,0,0,0,
0,0,-2046,-19,64,-8,-17,4,197,0,0,0,0,0,0,0,0,0,0,0,
0,0,-2043,-26,64,-5,-17,5,197,0,0,0,0,0,0,0,0,0,0,0,
0,0,-2054,-20,63,-4,-17,5,191,0,0,0,0,0,0,0,0,0,0,0,
0,0,-2050,-22,70,-7,-15,2,196,0,0,0,0,0,0,0,0,0,0,0,
0,0,-2044,-25,66,-9,-20,5,192,0,0,0,0,0,0,0,0,0,0,0,
0,0,-2047,-22,64,-9,-16,9,198,0,0,0,0,0,0,0,0,0,0,0,
0,0,-2046,-26,65,-8,-16,6,194,0,0,0,0,0,0,0,0,0,0,0,
0,0,-2052,-29,66,-6,-18,3,182,0,0,0,0,0,0,0,0,0,0,0,
0,0,-2046,-24,69,-6,-18,4,198,0,0,0,0,0,0,0,0,0,0,0,
0,0,-2041,-26,65,-7,-18,6,198,0,0,0,0,0,0,0,0,0,0,0,
0,0,-2048,-26,62,-7,-17,6,189,0,0,0,0,0,0,0,0,0,0,0,
0,0,-2050,-22,61,-6,-16,3,188,0,0,0,0,0,0,0,0,0,0,0,
0,0,-2047,-25,63,-6,-18,3,189,0,0,0,0,0,0,0,0,0,0,0,
0,0,-2049,-31,65,-5,-17,4,185,0,0,0,0,0,0,0,0,0,0,0,
0,0,-2041,-21,64,-7,-18,6,202,0,0,0,0,0,0,0,0,0,0,0,
0,0,-2054,-23,68,-6,-17,4,190,0,0,0,0,0,0,0,0,0,0,0,
0,0,-2051,-31,67,-10,-18,3,178,0,0,0,0,0,0,0,0,0,0,0,
0,0,-2045,-29,70,-9,-17,7,196,0,0,0,0,0,0,0,0,0,0,0,
0,0,-2042,-20,65,-7,-18,2,199,0,0,0,0,0,0,0,0,0,0,0,
0,0,-2045,-21,63,-4,-18,3,197,0,0,0,0,0,0,0,0,0,0,0,
0,0,-2049,-22,60,-5,-18,6,190,0,0,0,0,0,0,0,0,0,0,0,
0,0,-2050,-24,65,-10,-17,6,188,0,0,0,0,0,0,0,0,0,0,0,
0,0,-2049,-23,68,-9,-19,6,192,0,0,0,0,0,0,0,0,0,0,0,
0,0,-2045,-20,67,-4,-19,6,204,0,0,0,0,0,0,0,0,0,0,0,
0,0,-2046,-24,70,-6,-20,1,194,0,0,0,0,0,0,0,0,0,0,0,
0,0,-2053,-21,69,-5,-20,8,196,0,0,0,0,0,0,0,0,0,0,0,
0,0,-2052,-22,68,-7,-20,6,191,0,0,0,0,0,0,0,0,0,0,0,
0,0,-2047,-27,68,-4,-17,6,198,0,0,0,0,0,0,0,0,0,0,0,
0,0,-2046,-27,70,-6,-17,6,199,0,0,0,0,0,0,0,0,0,0,0,
0,0,-2039,-24,61,-8,-18,8,199,0,0,0,0,0,0,0,0,0,0,0,
0,0,-2051,-28,70,-4,-17,7,195,0,0,0,0,0,0,0,0,0,0,0,
0,0,-2051,-25,67,-4,-19,5,191,0,0,0,0,0,0,0,0,0,0,0,
0,0,-2045,-29,72,-5,-13,5,204,0,0,0,0,0,0,0,0,0,0,0,
0,0,-2043,-19,66,-8,-18,6,203,0,0,0,0,0,0,0,0,0,0,0,
0,0,-2049,-24,61,-10,-19,5,182,0,0,0,0,0,0,0,0,0,0,0,
0,0,-2046,-21,67,-4,-18,5,202,0,0,0,0,0,0,0,0,0,0,0,
0,0,-2051,-23,70,-5,-17,6,198,0,0,0,0,0,0,0,0,0,0,0,
0,0,-2052,-30,66,-3,-18,7,188,0,0,0,0,0,0,0,0,0,0,0,
0,0,-2048,-20,70,-8,-19,5,199,0,0,0,0,0,0,0,0,0,0,0,
0,0,-2050,-20,65,-8,-20,5,190,0,0,0,0,0,0,0,0,0,0,0,
0,0,-2047,-20,65,-2,-18,8,205,0,0,0,0,0,0,0,0,0,0,0,
0,0,-2049,-22,65,-4,-18,6,196,0,0,0,0,0,0,0,0,0,0,0,
0,0,-2052,-29,69,-8,-19,5,184,0,0,0,0,0,0,0,0,0,0,0,
0,0,-2052,-24,69,-4,-20,6,193,0,0,0,0,0,0,0,0,0,0,0,
0,0,-2044,-20,71,-7,-19,4,204,0,0,0,0,0,0,0,0,0,0,0,
0,0,-2051,-25,68,-8,-18,6,190,0,0,0,0,0,0,0,0,0,0,0,
0,0,-2047,-16,68,-6,-17,5,206,0,0,0,0,0,0,0,0,0,0,0,
0,0,-2047,-21,65,-5,-18,5,198,0,0,0,0,0,0,0,0,0,0,0,
0,0,-2045,-22,62,-4,-16,5,199,0,0,0,0,0,0,0,0,0,0,0,
0,0,-2055,-26,66,-4,-16,5,188,0,0,0,0,0,0,0,0,0,0,0,
0,0,-2055,-26,66,-12,-15,1,177,0,0,0,0,0,0,0,0,0,0,0,
0,0,-2042,-23,69,-5,-18,5,205,0,0,0,0,0,0,0,0,0,0,0,
0,0,-2043,-25,65,-5,-19,6,198,0,0,0,0,0,0,0,0,0,0,0,
0,0,-2050,-28,70,-8,-18,6,190,0,0,0,0,0,0,0,0,0,0,0,
0,0,-2050,-28,70,-7,-17,3,189,0,0,0,0,0,0,0,0,0,0,0,
0,0,-2050,-29,69,-4,-17,3,190,0,0,0,0,0,0,0,0,0,0,0,
0,0,-2046,-27,67,-5,-17,8,199,0,0,0,0,0,0,0,0,0,0,0,
0,0,-2050,-23,69,-6,-22,7,193,0,0,0,0,0,0,0,0,0,0,0,
0,0,-2050,-23,69,-9,-17,2,190,0,0,0,0,0,0,0,0,0,0,0,
0,0,-2057,-22,65,-6,-19,5,184,0,0,0,0,0,0,0,0,0,0,0,
0,0,-2043,-22,68,-4,-18,3,203,0,0,0,0,0,0,0,0,0,0,0,
0,0,-2050,-19,70,-8,-18,4,197,0,0,0,0,0,0,0,0,0,0,0,
0,0,-2046,-17,66,-5,-18,4,203,0,0,0,0,0,0,0,0,0,0,0,
0,0,-2046,-24,67,-5,-17,7,201,0,0,0,0,0,0,0,0,0,0,0,
0,0,-2043,-26,61,-5,-18,6,194,0,0,0,0,0,0,0,0,0,0,0,
0,0,-2050,-27,70,-5,-16,4,194,0,0,0,0,0,0,0,0,0,0,0,
0,0,-2051,-25,69,-6,-19,5,191,0,0,0,0,0,0,0,0,0,0,0,
0,0,-2044,-24,59,-6,-18,5,191,0,0,0,0,0,0,0,0,0,0,0,
0,0,-2044,-22,67,-4,-18,10,208,0,0,0,0,0,0,0,0,0,0,0,
0,0,-2050,-25,63,-7,-16,7,190,0,0,0,0,0,0,0,0,0,0,0,
0,0,-2055,-25,60,-7,-18,6,179,0,0,0,0,0,0,0,0,0,0,0,
0,0,-2054,-34,74,-4,-18,6,188,0,0,0,0,0,0,0,0,0,0,0,
0,0,-2058,-28,63,-5,-18,9,181,0,0,0,0,0,0,0,0,0,0,0,
0,0,-2049,-24,72,-5,-20,7,199,0,0,0,0,0,0,0,0,0,0,0,
0,0,-2047,-18,68,-5,-20,4,201,0,0,0,0,0,0,0,0,0,0,0,
0,0,-2051,-27,68,-8,-20,3,183,0,0,0,0,0,0,0,0,0,0,0,
0,0,-2049,-20,68,-8,-18,4,195,0,0,0,0,0,0,0,0,0,0,0,
0,0,-2050,-23,65,-8,-19,4,187,0,0,0,0,0,0,0,0,0,0,0,
0,0,-2049,-25,69,-8,-19,4,190,0,0,0,0,0,0,0,0,0,0,0,
0,0,-2037,-29,65,-6,-17,7,202,0,0,0,0,0,0,0,0,0,0,0,
0,0,-2042,-23,62,-5,-16,8,203,0,0,0,0,0,0,0,0,0,0,0,
0,0,-2047,-22,64,-7,-18,5,194,0,0,0,0,0,0,0,0,0,0,0,
0,0,-2054,-22,64,-5,-19,7,189,0,0,0,0,0,0,0,0,0,0,0,
0,0,-2053,-18,66,-6,-16,9,200,0,0,0,0,0,0,0,0,0,0,0,
0,0,-2050,-25,65,-9,-19,7,187,0,0,0,0,0,0,0,0,0,0,0,
0,0,-2050,-23,67,-7,-15,10,200,0,0,0,0,0,0,0,0,0,0,0,
0,0,-2055,-23,72,-10,-17,3,188,0,0,0,0,0,0,0,0,0,0,0,
0,0,-2042,-24,73,-6,-21,3,202,0,0,0,0,0,0,0,0,0,0,0,
0,0,-2048,-27,67,-3,-18,8,198,0,0,0,0,0,0,0,0,0,0,0,
0,0,-2050,-24,65,-9,-16,5,189,0,0,0,0,0,0,0,0,0,0,0,
0,0,-2047,-23,64,-4,-18,3,194,0,0,0,0,0,0,0,0,0,0,0,
0,0,-2050,-29,63,-11,-16,9,184,0,0,0,0,0,0,0,0,0,0,0,
0,0,-2047,-22,70,-5,-22,5,198,0,0,0,0,0,0,0,0,0,0,0,
0,0,-2050,-18,66,-7,-17,3,195,0,0,0,0,0,0,0,0,0,0,0,
0,0,-2050,-23,67,-7,-17,3,191,0,0,0,0,0,0,0,0,0,0,0,
0,0,-2054,-29,62,-5,-18,5,179,0,0,0,0,0,0,0,0,0,0,0,
0,0,-2045,-21,66,-5,-16,5,203,0,0,0,0,0,0,0,0,0,0,0,
0,0,-2052,-19,67,-10,-17,6,193,0,0,0,0,0,0,0,0,0,0,0,
0,0,-2050,-26,55,-7,-18,7,179,0,0,0,0,0,0,0,0,0,0,0,
0,0,-2051,-22,65,-7,-17,5,191,0,0,0,0,0,0,0,0,0,0,0,
0,0,-2041,-18,63,-3,-17,7,210,0,0,0,0,0,0,0,0,0,0,0,
0,0,-2048,-26,61,-4,-17,3,188,0,0,0,0,0,0,0,0,0,0,0,
0,0,-2049,-42,64,-7,-19,8,173,0,0,0,0,0,0,0,0,0,0,0,
0,0,-2049,-19,63,-8,-17,1,189,0,0,0,0,0,0,0,0,0,0,0,
0,0,-2053,-27,68,-5,-20,4,185,0,0,0,0,0,0,0,0,0,0,0,
0,0,-2047,-23,66,-8,-17,6,196,0,0,0,0,0,0,0,0,0,0,0,
0,0,-2044,-25,72,-6,-21,5,200,0,0,0,0,0,0,0,0,0,0,0,
0,0,-2052,-25,55,-6,-19,7,178,0,0,0,0,0,0,0,0,0,0,0,
0,0,-2050,-27,73,-8,-20,4,190,0,0,0,0,0,0,0,0,0,0,0,
0,0,-2045,-20,69,-10,-19,6,200,0,0,0,0,0,0,0,0,0,0,0,
0,0,-2051,-20,67,-7,-18,5,194,0,0,0,0,0,0,0,0,0,0,0,
0,0,-2042,-31,63,-6,-18,8,193,0,0,0,0,0,0,0,0,0,0,0,
0,0,-2044,-30,78,-8,-18,5,202,0,0,0,0,0,0,0,0,0,0,0,
0,0,-2048,-28,65,-6,-19,6,189,0,0,0,0,0,0,0,0,0,0,0,
0,0,-2045,-24,73,-8,-19,2,198,0,0,0,0,0,0,0,0,0,0,0,
0,0,-2047,-27,66,-5,-16,6,196,0,0,0,0,0,0,0,0,0,0,0,
0,0,-2049,-25,61,-5,-17,5,188,0,0,0,0,0,0,0,0,0,0,0,
0,0,-2053,-29,71,-5,-14,5,193,0,0,0,0,0,0,0,0,0,0,0,
0,0,-2053,-26,64,-4,-18,4,185,0,0,0,0,0,0,0,0,0,0,0,
0,0,-2047,-28,69,-5,-19,5,194,0,0,0,0,0,0,0,0,0,0,0,
0,0,-2052,-25,60,-5,-15,4,185,0,0,0,0,0,0,0,0,0,0,0,
0,0,-2042,-19,61,-4,-20,5,200,0,0,0,0,0,0,0,0,0,0,0,
0,0,-2047,-28,64,-6,-17,4,189,0,0,0,0,0,0,0,0,0,0,0,
0,0,-2049,-32,68,-7,-17,3,184,0,0,0,0,0,0,0,0,0,0,0,
0,0,-2054,-26,68,-4,-20,3,185,0,0,0,0,0,0,0,0,0,0,0,
0,0,-2047,-22,56,-11,-16,6,185,0,0,0,0,0,0,0,0,0,0,0,
0,0,-2049,-22,71,-12,-22,7,191,0,0,0,0,0,0,0,0,0,0,0,
0,0,-2045,-23,70,-9,-19,7,200,0,0,0,0,0,0,0,0,0,0,0,
0,0,-2049,-25,67,-8,-18,2,187,0,0,0,0,0,0,0,0,0,0,0,
0,0,-2053,-26,68,-6,-18,6,189,0,0,0,0,0,0,0,0,0,0,0,
0,0,-2047,-25,73,-8,-21,8,199,0,0,0,0,0,0,0,0,0,0,0,
0,0,-2053,-21,66,-8,-20,8,190,0,0,0,0,0,0,0,0,0,0,0,
0,0,-2047,-31,67,-5,-16,8,195,0,0,0,0,0,0,0,0,0,0,0,
0,0,-2043,-21,69,-4,-19,10,211,0,0,0,0,0,0,0,0,0,0,0,
0,0,-2044,-29,65,-7,-18,6,192,0,0,0,0,0,0,0,0,0,0,0,
0,0,-2049,-26,67,-6,-16,6,194,0,0,0,0,0,0,0,0,0,0,0,
0,0,-2050,-28,68,-6,-18,5,189,0,0,0,0,0,0,0,0,0,0,0,
0,0,-2043,-20,69,-6,-19,8,208,0,0,0,0,0,0,0,0,0,0,0,
0,0,-2051,-18,65,-7,-18,7,196,0,0,0,0,0,0,0,0,0,0,0,
0,0,-2052,-24,65,-7,-20,6,186,0,0,0,0,0,0,0,0,0,0,0,
0,0,-2047,-25,66,-6,-20,6,193,0,0,0,0,0,0,0,0,0,0,0,
0,0,-2050,-24,66,-4,-19,8,195,0,0,0,0,0,0,0,0,0,0,0,
0,0,-2048,-27,70,-8,-16,7,197,0,0,0,0,0,0,0,0,0,0,0,
0,0,-2055,-27,65,-6,-16,7,186,0,0,0,0,0,0,0,0,0,0,0,
0,0,-2049,-29,64,-7,-17,6,186,0,0,0,0,0,0,0,0,0,0,0,
0,0,-2044,-24,64,-6,-19,7,197,0,0,0,0,0,0,0,0,0,0,0,
0,0,-2050,-29,68,-3,-15,6,195,0,0,0,0,0,0,0,0,0,0,0,
0,0,-2053,-20,69,-5,-16,5,198,0,0,0,0,0,0,0,0,0,0,0,
0,0,-2051,-21,63,-10,-22,5,182,0,0,0,0,0,0,0,0,0,0,0,
0,0,-2045,-21,68,-7,-20,6,200,0,0,0,0,0,0,0,0,0,0,0,
0,0,-2051,-24,74,-3,-18,5,201,0,0,0,0,0,0,0,0,0,0,0,
0,0,-2047,-26,62,-5,-18,9,194,0,0,0,0,0,0,0,0,0,0,0,
0,0,-2049,-28,67,-8,-14,6,192,0,0,0,0,0,0,0,0,0,0,0,
0,0,-2051,-24,70,-7,-19,10,197,0,0,0,0,0,0,0,0,0,0,0,
0,0,-2055,-23,68,-7,-16,9,194,0,0,0,0,0,0,0,0,0,0,0,
0,0,-2052,-25,66,-8,-17,4,186,0,0,0,0,0,0,0,0,0,0,0,
0,0,-2043,-27,60,-11,-19,6,185,0,0,0,0,0,0,0,0,0,0,0,
0,0,-2047,-22,62,-4,-16,6,198,0,0,0,0,0,0,0,0,0,0,0,
0,0,-2047,-22,62,-4,-16,6,198,0,0,0,0,0,0,0,0,0,0,0,
0,0,-2048,-26,65,-6,-19,4,189,0,0,0,0,0,0,0,0,0,0,0,
0,0,-2048,-22,69,-6,-22,5,195,0,0,0,0,0,0,0,0,0,0,0,
0,0,-2046,-25,63,-10,-20,5,186,0,0,0,0,0,0,0,0,0,0,0,
0,0,-2046,-25,63,-10,-20,5,186,0,0,0,0,0,0,0,0,0,0,0,
0,0,-2050,-24,66,-9,-16,3,188,0,0,0,0,0,0,0,0,0,0,0,
0,0,-2049,-27,75,-6,-20,2,193,0,0,0,0,0,0,0,0,0,0,0,
0,0,-2049,-28,66,-7,-17,4,187,0,0,0,0,0,0,0,0,0,0,0,
0,0,-2046,-34,70,-6,-16,2,189,0,0,0,0,0,0,0,0,0,0,0,
0,0,-2046,-34,70,-5,-17,6,193,0,0,0,0,0,0,0,0,0,0,0,
0,0,-2051,-23,64,-6,-18,6,190,0,0,0,0,0,0,0,0,0,0,0,
0,0,-2045,-28,67,-7,-16,9,199,0,0,0,0,0,0,0,0,0,0,0,
0,0,-2049,-31,69,-10,-18,4,183,0,0,0,0,0,0,0,0,0,0,0,
0,0,-2052,-29,57,-4,-16,5,179,0,0,0,0,0,0,0,0,0,0,0,
0,0,-2041,-20,61,-6,-18,10,205,0,0,0,0,0,0,0,0,0,0,0,
0,0,-2047,-32,72,-8,-19,7,192,0,0,0,0,0,0,0,0,0,0,0,
0,0,-2050,-27,66,-6,-18,6,189,0,0,0,0,0,0,0,0,0,0,0,
0,0,-2051,-23,63,-6,-18,4,187,0,0,0,0,0,0,0,0,0,0,0,
0,0,-2044,-29,71,-8,-18,8,199,0,0,0,0,0,0,0,0,0,0,0,
0,0,-2050,-26,67,-7,-20,10,192,0,0,0,0,0,0,0,0,0,0,0,
0,0,-2053,-25,66,-5,-19,6,188,0,0,0,0,0,0,0,0,0,0,0,
0,0,-2054,-26,71,-5,-18,5,191,0,0,0,0,0,0,0,0,0,0,0,
0,0,-2043,-29,58,-5,-18,7,189,0,0,0,0,0,0,0,0,0,0,0,
0,0,-2043,-30,70,-6,-20,6,196,0,0,0,0,0,0,0,0,0,0,0,
0,0,-2052,-23,67,-5,-17,7,195,0,0,0,0,0,0,0,0,0,0,0,
0,0,-2051,-29,62,-8,-20,5,177,0,0,0,0,0,0,0,0,0,0,0,
0,0,-2049,-29,74,-7,-16,6,197,0,0,0,0,0,0,0,0,0,0,0,
0,0,-2048,-20,69,-8,-18,6,200,0,0,0,0,0,0,0,0,0,0,0,
0,0,-2049,-25,71,-7,-16,9,201,0,0,0,0,0,0,0,0,0,0,0,
0,0,-2049,-35,72,-7,-17,8,190,0,0,0,0,0,0,0,0,0,0,0,
0,0,-2047,-27,61,-4,-18,8,192,0,0,0,0,0,0,0,0,0,0,0,
0,0,-2047,-26,66,-7,-21,3,187,0,0,0,0,0,0,0,0,0,0,0,
0,0,-2048,-23,65,-6,-15,9,201,0,0,0,0,0,0,0,0,0,0,0,
0,0,-2045,-24,68,-6,-17,6,201,0,0,0,0,0,0,0,0,0,0,0,
0,0,-2037,-24,60,-8,-16,5,199,0,0,0,0,0,0,0,0,0,0,0,
0,0,-2047,-31,67,-7,-18,7,190,0,0,0,0,0,0,0,0,0,0,0,
0,0,-2050,-21,69,-9,-17,5,195,0,0,0,0,0,0,0,0,0,0,0,
0,0,-2046,-25,72,-7,-15,9,207,0,0,0,0,0,0,0,0,0,0,0,
0,0,-2045,-24,66,-4,-20,8,200,0,0,0,0,0,0,0,0,0,0,0,
0,0,-2042,-28,64,-3,-20,5,195,0,0,0,0,0,0,0,0,0,0,0,
0,0,-2045,-20,65,-2,-22,7,202,0,0,0,0,0,0,0,0,0,0,0,
0,0,-2047,-22,72,-8,-21,8,201,0,0,0,0,0,0,0,0,0,0,0,
0,0,-2046,-27,70,-6,-18,8,200,0,0,0,0,0,0,0,0,0,0,0,
0,0,-2044,-30,69,-6,-21,8,195,0,0,0,0,0,0,0,0,0,0,0,
0,0,-2050,-20,72,-8,-17,5,200,0,0,0,0,0,0,0,0,0,0,0,
0,0,-2052,-27,58,-6,-18,5,178,0,0,0,0,0,0,0,0,0,0,0,
0,0,-2048,-25,64,-7,-16,6,193,0,0,0,0,0,0,0,0,0,0,0,
0,0,-2051,-25,69,-6,-17,6,194,0,0,0,0,0,0,0,0,0,0,0,
0,0,-2052,-28,66,-8,-16,5,185,0,0,0,0,0,0,0,0,0,0,0,
0,0,-2051,-26,70,-4,-18,7,196,0,0,0,0,0,0,0,0,0,0,0,
0,0,-2045,-26,70,-7,-18,6,199,0,0,0,0,0,0,0,0,0,0,0,
0,0,-2049,-24,63,-4,-17,5,192,0,0,0,0,0,0,0,0,0,0,0,
0,0,-2050,-28,65,-7,-16,4,186,0,0,0,0,0,0,0,0,0,0,0,
0,0,-2049,-27,69,-9,-15,2,189,0,0,0,0,0,0,0,0,0,0,0,
0,0,-2049,-22,73,-5,-20,7,202,0,0,0,0,0,0,0,0,0,0,0,
0,0,-2047,-21,70,-7,-17,9,206,0,0,0,0,0,0,0,0,0,0,0,
0,0,-2047,-27,61,-8,-17,2,183,0,0,0,0,0,0,0,0,0,0,0,
0,0,-2048,-28,59,-5,-19,5,183,0,0,0,0,0,0,0,0,0,0,0,
0,0,-2048,-26,59,-7,-19,7,185,0,0,0,0,0,0,0,0,0,0,0,
0,0,-2049,-20,62,-7,-18,5,191,0,0,0,0,0,0,0,0,0,0,0,
0,0,-2053,-26,66,-7,-17,7,188,0,0,0,0,0,0,0,0,0,0,0,
0,0,-2045,-30,66,-4,-16,7,197,0,0,0,0,0,0,0,0,0,0,0,
0,0,-2048,-27,75,-6,-21,8,200,0,0,0,0,0,0,0,0,0,0,0,
0,0,-2052,-25,73,-4,-17,6,199,0,0,0,0,0,0,0,0,0,0,0,
0,0,-2051,-28,68,-4,-17,3,189,0,0,0,0,0,0,0,0,0,0,0,
0,0,-2044,-25,62,-4,-20,4,192,0,0,0,0,0,0,0,0,0,0,0,
0,0,-2046,-26,67,-5,-18,9,200,0,0,0,0,0,0,0,0,0,0,0,
0,0,-2043,-26,63,-6,-17,8,198,0,0,0,0,0,0,0,0,0,0,0,
0,0,-2050,-25,64,-7,-19,4,185,0,0,0,0,0,0,0,0,0,0,0,
0,0,-2049,-29,76,-10,-14,6,198,0,0,0,0,0,0,0,0,0,0,0,
0,0,-2051,-27,70,-7,-19,5,189,0,0,0,0,0,0,0,0,0,0,0,
0,0,-2048,-16,77,-4,-18,8,218,0,0,0,0,0,0,0,0,0,0,0,
0,0,-2041,-26,68,-7,-21,6,198,0,0,0,0,0,0,0,0,0,0,0,
0,0,-2049,-19,69,-7,-18,9,203,0,0,0,0,0,0,0,0,0,0,0,
0,0,-2040,-22,61,-6,-18,9,203,0,0,0,0,0,0,0,0,0,0,0,
0,0,-2044,-24,62,-9,-18,8,194,0,0,0,0,0,0,0,0,0,0,0,
0,0,-2046,-13,71,-6,-18,5,212,0,0,0,0,0,0,0,0,0,0,0,
0,0,-2046,-28,57,-5,-18,4,183,0,0,0,0,0,0,0,0,0,0,0,
0,0,-2050,-23,66,-7,-15,7,196,0,0,0,0,0,0,0,0,0,0,0,
0,0,-2044,-20,67,-8,-18,6,202,0,0,0,0,0,0,0,0,0,0,0,
0,0,-2051,-35,68,-7,-20,7,180,0,0,0,0,0,0,0,0,0,0,0,
0,0,-2049,-22,64,-7,-21,4,187,0,0,0,0,0,0,0,0,0,0,0,
0,0,-2047,-23,70,-6,-17,6,202,0,0,0,0,0,0,0,0,0,0,0,
0,0,-2044,-22,70,-4,-20,5,204,0,0,0,0,0,0,0,0,0,0,0,
0,0,-2046,-20,64,-5,-18,6,200,0,0,0,0,0,0,0,0,0,0,0,
0,0,-2049,-23,64,-6,-16,5,193,0,0,0,0,0,0,0,0,0,0,0,
0,0,-2046,-24,65,-4,-18,6,198,0,0,0,0,0,0,0,0,0,0,0,
0,0,-2050,-27,72,-8,-15,5,195,0,0,0,0,0,0,0,0,0,0,0,
0,0,-2054,-27,66,-7,-18,5,183,0,0,0,0,0,0,0,0,0,0,0,
0,0,-2053,-23,63,-7,-18,6,186,0,0,0,0,0,0,0,0,0,0,0,
0,0,-2044,-23,64,-6,-20,5,195,0,0,0,0,0,0,0,0,0,0,0,
0,0,-2049,-27,68,-2,-19,7,196,0,0,0,0,0,0,0,0,0,0,0,
0,0,-2046,-21,62,-9,-17,8,196,0,0,0,0,0,0,0,0,0,0,0,
0,0,-2045,-23,59,-9,-19,6,188,0,0,0,0,0,0,0,0,0,0,0,
0,0,-2050,-26,76,-4,-18,4,200,0,0,0,0,0,0,0,0,0,0,0,
0,0,-2048,-29,67,-6,-19,5,189,0,0,0,0,0,0,0,0,0,0,0,
0,0,-2046,-22,72,-11,-16,7,203,0,0,0,0,0,0,0,0,0,0,0,
0,0,-2055,-24,67,-6,-18,5,187,0,0,0,0,0,0,0,0,0,0,0,
0,0,-2052,-15,62,-5,-19,6,195,0,0,0,0,0,0,0,0,0,0,0,
0,0,-2048,-31,66,-7,-18,3,184,0,0,0,0,0,0,0,0,0,0,0,
0,0,-2040,-24,65,-7,-17,8,204,0,0,0,0,0,0,0,0,0,0,0,
0,0,-2046,-26,67,-2,-19,10,203,0,0,0,0,0,0,0,0,0,0,0,
0,0,-2046,-20,70,-7,-21,5,200,0,0,0,0,0,0,0,0,0,0,0,
0,0,-2048,-22,73,-6,-19,8,205,0,0,0,0,0,0,0,0,0,0,0,
0,0,-2052,-28,61,-8,-20,4,175,0,0,0,0,0,0,0,0,0,0,0,
0,0,-2043,-30,71,-8,-21,8,196,0,0,0,0,0,0,0,0,0,0,0,
0,0,-2045,-26,71,-8,-17,9,203,0,0,0,0,0,0,0,0,0,0,0,
0,0,-2048,-26,69,-4,-19,6,197,0,0,0,0,0,0,0,0,0,0,0,
0,0,-2050,-20,71,-6,-17,6,202,0,0,0,0,0,0,0,0,0,0,0,
0,0,-2047,-26,61,-6,-17,7,191,0,0,0,0,0,0,0,0,0,0,0,
0,0,-2047,-26,61,-6,-17,7,191,0,0,0,0,0,0,0,0,0,0,0,
0,0,-2048,-22,70,-7,-17,6,201,0,0,0,0,0,0,0,0,0,0,0,
0,0,-2046,-26,62,-6,-19,3,187,0,0,0,0,0,0,0,0,0,0,0,
0,0,-2054,-23,67,-11,-18,6,185,0,0,0,0,0,0,0,0,0,0,0,
0,0,-2054,-23,67,-6,-20,4,186,0,0,0,0,0,0,0,0,0,0,0,
0,0,-2051,-26,67,-12,-17,3,182,0,0,0,0,0,0,0,0,0,0,0,
0,0,-2043,-17,71,-12,-17,3,204,0,0,0,0,0,0,0,0,0,0,0,
0,0,-2042,-31,60,-5,-19,6,188,0,0,0,0,0,0,0,0,0,0,0,
0,0,-2051,-28,68,-7,-19,4,185,0,0,0,0,0,0,0,0,0,0,0,
0,0,-2051,-28,68,-5,-19,6,189,0,0,0,0,0,0,0,0,0,0,0,
0,0,-2048,-27,71,-4,-18,5,198,0,0,0,0,0,0,0,0,0,0,0,
0,0,-2048,-23,64,-7,-15,8,198,0,0,0,0,0,0,0,0,0,0,0,
0,0,-2048,-28,62,-7,-18,6,186,0,0,0,0,0,0,0,0,0,0,0,
0,0,-2046,-27,62,-3,-17,7,195,0,0,0,0,0,0,0,0,0,0,0,
0,0,-2042,-21,62,-6,-21,8,199,0,0,0,0,0,0,0,0,0,0,0,
0,0,-2044,-23,63,-7,-18,9,199,0,0,0,0,0,0,0,0,0,0,0,
0,0,-2052,-22,72,-5,-18,5,198,0,0,0,0,0,0,0,0,0,0,0,
0,0,-2050,-25,67,-4,-16,3,193,0,0,0,0,0,0,0,0,0,0,0,
0,0,-2055,-27,72,-6,-18,1,185,0,0,0,0,0,0,0,0,0,0,0,
0,0,-2050,-24,68,-8,-17,3,190,0,0,0,0,0,0,0,0,0,0,0,
0,0,-2055,-23,69,-6,-17,5,191,0,0,0,0,0,0,0,0,0,0,0,
0,0,-2049,-28,66,-4,-20,5,188,0,0,0,0,0,0,0,0,0,0,0,
0,0,-2043,-22,71,-6,-18,7,208,0,0,0,0,0,0,0,0,0,0,0,
0,0,-2053,-27,68,-12,-17,6,183,0,0,0,0,0,0,0,0,0,0,0,
0,0,-2041,-32,70,-7,-21,6,194,0,0,0,0,0,0,0,0,0,0,0,
0,0,-2052,-20,66,-4,-18,3,193,0,0,0,0,0,0,0,0,0,0,0,
0,0,-2046,-33,70,-8,-19,6,189,0,0,0,0,0,0,0,0,0,0,0,
0,0,-2043,-22,70,-5,-17,3,205,0,0,0,0,0,0,0,0,0,0,0,
0,0,-2051,-25,63,-8,-18,6,185,0,0,0,0,0,0,0,0,0,0,0,
0,0,-2050,-16,63,-5,-18,8,200,0,0,0,0,0,0,0,0,0,0,0,
0,0,-2051,-24,66,-7,-17,4,189,0,0,0,0,0,0,0,0,0,0,0,
0,0,-2040,-25,66,-4,-22,5,199,0,0,0,0,0,0,0,0,0,0,0,
0,0,-2045,-26,62,-5,-18,8,195,0,0,0,0,0,0,0,0,0,0,0,
0,0,-2045,-31,62,-9,-20,10,186,0,0,0,0,0,0,0,0,0,0,0,
0,0,-2046,-25,68,-10,-17,5,194,0,0,0,0,0,0,0,0,0,0,0,
0,0,-2049,-22,67,-3,-18,7,200,0,0,0,0,0,0,0,0,0,0,0,
0,0,-2048,-25,75,-5,-17,6,205,0,0,0,0,0,0,0,0,0,0,0,
0,0,-2049,-26,70,-2,-16,9,204,0,0,0,0,0,0,0,0,0,0,0,
0,0,-2052,-23,63,-8,-17,7,188,0,0,0,0,0,0,0,0,0,0,0,
0,0,-2041,-21,64,-6,-20,1,196,0,0,0,0,0,0,0,0,0,0,0,
0,0,-2052,-18,63,-4,-17,1,191,0,0,0,0,0,0,0,0,0,0,0,
0,0,-2054,-23,69,-5,-19,5,191,0,0,0,0,0,0,0,0,0,0,0,
0,0,-2046,-21,73,-5,-21,6,205,0,0,0,0,0,0,0,0,0,0,0,
0,0,-2053,-24,67,-5,-20,4,187,0,0,0,0,0,0,0,0,0,0,0,
0,0,-2051,-19,73,-6,-18,3,200,0,0,0,0,0,0,0,0,0,0,0,
0,0,-2051,-31,64,-7,-18,7,182,0,0,0,0,0,0,0,0,0,0,0,
0,0,-2045,-23,68,-5,-17,4,201,0,0,0,0,0,0,0,0,0,0,0,
0,0,-2053,-21,63,-10,-18,5,184,0,0,0,0,0,0,0,0,0,0,0,
0,0,-2046,-19,65,-6,-19,7,201,0,0,0,0,0,0,0,0,0,0,0,
0,0,-2048,-22,73,-6,-17,6,205,0,0,0,0,0,0,0,0,0,0,0,
0,0,-2053,-30,62,-8,-18,3,174,0,0,0,0,0,0,0,0,0,0,0,
0,0,-2053,-25,67,-8,-18,3,184,0,0,0,0,0,0,0,0,0,0,0,
0,0,-2047,-25,68,-9,-18,6,194,0,0,0,0,0,0,0,0,0,0,0,
0,0,-2046,-27,70,-3,-20,7,200,0,0,0,0,0,0,0,0,0,0,0,
0,0,-2047,-26,65,-10,-17,6,190,0,0,0,0,0,0,0,0,0,0,0,
0,0,-2048,-18,68,-5,-19,2,199,0,0,0,0,0,0,0,0,0,0,0,
0,0,-2054,-29,62,-3,-17,8,185,0,0,0,0,0,0,0,0,0,0,0,
0,0,-2047,-22,68,-5,-21,9,201,0,0,0,0,0,0,0,0,0,0,0,
0,0,-2052,-26,69,-9,-18,7,189,0,0,0,0,0,0,0,0,0,0,0,
0,0,-2052,-29,69,-6,-17,5,188,0,0,0,0,0,0,0,0,0,0,0,
0,0,-2049,-27,68,-5,-18,7,194,0,0,0,0,0,0,0,0,0,0,0,
0,0,-2045,-22,65,-5,-18,5,199,0,0,0,0,0,0,0,0,0,0,0,
0,0,-2051,-29,69,-5,-19,6,189,0,0,0,0,0,0,0,0,0,0,0,
0,0,-2045,-20,69,-3,-19,3,204,0,0,0,0,0,0,0,0,0,0,0,
0,0,-2050,-27,64,-8,-18,5,184,0,0,0,0,0,0,0,0,0,0,0,
0,0,-2050,-27,72,-5,-17,3,194,0,0,0,0,0,0,0,0,0,0,0,
0,0,-2059,-28,72,-6,-17,6,186,0,0,0,0,0,0,0,0,0,0,0,
0,0,-2046,-18,62,-8,-17,5,197,0,0,0,0,0,0,0,0,0,0,0,
0,0,-2053,-20,70,-8,-19,7,195,0,0,0,0,0,0,0,0,0,0,0,
0,0,-2049,-22,67,-4,-19,5,196,0,0,0,0,0,0,0,0,0,0,0,
0,0,-2054,-24,74,-4,-16,7,201,0,0,0,0,0,0,0,0,0,0,0,
0,0,-2046,-25,67,-4,-20,6,197,0,0,0,0,0,0,0,0,0,0,0,
0,0,-2048,-20,64,-6,-17,8,200,0,0,0,0,0,0,0,0,0,0,0,
0,0,-2047,-24,71,-4,-21,8,202,0,0,0,0,0,0,0,0,0,0,0,
0,0,-2050,-21,65,-4,-21,3,190,0,0,0,0,0,0,0,0,0,0,0,
0,0,-2050,-29,72,-7,-19,3,188,0,0,0,0,0,0,0,0,0,0,0,
0,0,-2050,-25,64,-6,-18,3,186,0,0,0,0,0,0,0,0,0,0,0,
0,0,-2039,-20,59,-7,-15,5,202,0,0,0,0,0,0,0,0,0,0,0,
0,0,-2052,-25,62,-8,-19,5,181,0,0,0,0,0,0,0,0,0,0,0,
0,0,-2048,-23,63,-4,-20,6,193,0,0,0,0,0,0,0,0,0,0,0,
0,0,-2050,-18,67,-4,-16,6,203,0,0,0,0,0,0,0,0,0,0,0,
0,0,-2048,-26,64,-8,-16,6,191,0,0,0,0,0,0,0,0,0,0,0,
0,0,-2046,-22,70,-7,-19,5,200,0,0,0,0,0,0,0,0,0,0,0,
0,0,-2042,-22,69,-4,-18,8,210,0,0,0,0,0,0,0,0,0,0,0,
0,0,-2048,-26,72,-8,-18,9,200,0,0,0,0,0,0,0,0,0,0,0,
0,0,-2050,-27,66,-7,-21,7,186,0,0,0,0,0,0,0,0,0,0,0,
0,0,-2053,-28,65,-3,-20,5,184,0,0,0,0,0,0,0,0,0,0,0,
0,0,-2048,-17,67,-5,-19,9,206,0,0,0,0,0,0,0,0,0,0,0,
0,0,-2041,-18,63,-7,-18,3,201,0,0,0,0,0,0,0,0,0,0,0,
0,0,-2040,-26,68,-5,-16,8,208,0,0,0,0,0,0,0,0,0,0,0,
0,0,-2050,-30,66,-5,-20,4,183,0,0,0,0,0,0,0,0,0,0,0,
0,0,-2046,-29,80,-9,-17,8,206,0,0,0,0,0,0,0,0,0,0,0,
0,0,-2046,-23,65,-4,-17,5,199,0,0,0,0,0,0,0,0,0,0,0,
0,0,-2051,-17,71,-3,-17,6,207,0,0,0,0,0,0,0,0,0,0,0,
0,0,-2050,-21,66,-5,-19,3,192,0,0,0,0,0,0,0,0,0,0,0,
0,0,-2046,-20,62,-5,-20,5,195,0,0,0,0,0,0,0,0,0,0,0,
0,0,-2050,-24,66,-3,-18,9,198,0,0,0,0,0,0,0,0,0,0,0,
0,0,-2048,-26,68,-5,-19,7,196,0,0,0,0,0,0,0,0,0,0,0,
0,0,-2045,-27,68,-4,-19,4,196,0,0,0,0,0,0,0,0,0,0,0,
0,0,-2046,-26,70,-6,-16,6,201,0,0,0,0,0,0,0,0,0,0,0,
0,0,-2049,-19,65,-4,-16,6,201,0,0,0,0,0,0,0,0,0,0,0,
0,0,-2054,-23,65,-6,-18,6,188,0,0,0,0,0,0,0,0,0,0,0,
0,0,-2047,-23,73,-6,-17,5,204,0,0,0,0,0,0,0,0,0,0,0,
0,0,-2044,-17,63,-6,-18,7,204,0,0,0,0,0,0,0,0,0,0,0,
0,0,-2052,-26,59,-7,-15,9,186,0,0,0,0,0,0,0,0,0,0,0,
0,0,-2052,-20,66,-8,-17,4,191,0,0,0,0,0,0,0,0,0,0,0,
0,0,-2051,-24,61,-8,-13,7,190,0,0,0,0,0,0,0,0,0,0,0,
0,0,-2042,-21,66,-8,-16,2,200,0,0,0,0,0,0,0,0,0,0,0,
0,0,-2043,-22,73,-5,-19,5,208,0,0,0,0,0,0,0,0,0,0,0,
0,0,-2043,-22,73,-5,-19,5,208,0,0,0,0,0,0,0,0,0,0,0,
0,0,-2049,-21,70,-6,-17,6,201,0,0,0,0,0,0,0,0,0,0,0,
0,0,-2049,-23,66,-8,-16,1,189,0,0,0,0,0,0,0,0,0,0,0,
0,0,-2045,-26,59,-10,-18,6,185,0,0,0,0,0,0,0,0,0,0,0,
0,0,-2046,-24,63,-9,-18,4,189,0,0,0,0,0,0,0,0,0,0,0,
0,0,-2046,-24,63,-5,-17,2,192,0,0,0,0,0,0,0,0,0,0,0,
0,0,-2047,-19,65,-6,-20,8,200,0,0,0,0,0,0,0,0,0,0,0,
0,0,-2053,-25,65,-8,-20,7,184,0,0,0,0,0,0,0,0,0,0,0,
0,0,-2054,-20,66,-8,-16,5,191,0,0,0,0,0,0,0,0,0,0,0,
0,0,-2054,-20,66,-6,-19,6,191,0,0,0,0,0,0,0,0,0,0,0,
0,0,-2049,-24,62,-3,-17,6,193,0,0,0,0,0,0,0,0,0,0,0,
0,0,-2046,-30,64,-7,-17,9,192,0,0,0,0,0,0,0,0,0,0,0,
0,0,-2051,-26,68,-7,-18,6,190,0,0,0,0,0,0,0,0,0,0,0,
0,0,-2047,-36,70,-10,-17,2,181,0,0,0,0,0,0,0,0,0,0,0,
0,0,-2044,-21,68,-6,-17,6,205,0,0,0,0,0,0,0,0,0,0,0,
0,0,-2052,-20,68,-5,-17,6,198,0,0,0,0,0,0,0,0,0,0,0,
0,0,-2046,-30,66,-7,-18,4,188,0,0,0,0,0,0,0,0,0,0,0,
0,0,-2052,-24,65,-8,-20,4,183,0,0,0,0,0,0,0,0,0,0,0,
0,0,-2038,-29,68,-5,-17,5,203,0,0,0,0,0,0,0,0,0,0,0,
0,0,-2053,-33,70,-5,-16,7,188,0,0,0,0,0,0,0,0,0,0,0,
0,0,-2047,-20,68,-4,-22,8,202,0,0,0,0,0,0,0,0,0,0,0,
0,0,-2048,-25,66,-6,-19,7,194,0,0,0,0,0,0,0,0,0,0,0,
0,0,-2049,-29,65,-8,-16,8,189,0,0,0,0,0,0,0,0,0,0,0,
0,0,-2046,-25,66,-7,-18,6,195,0,0,0,0,0,0,0,0,0,0,0,
0,0,-2052,-26,78,-6,-19,5,198,0,0,0,0,0,0,0,0,0,0,0,
0,0,-2044,-25,68,-5,-17,5,201,0,0,0,0,0,0,0,0,0,0,0,
0,0,-2041,-29,59,-5,-18,7,192,0,0,0,0,0,0,0,0,0,0,0,
0,0,-2045,-26,58,-6,-18,6,188,0,0,0,0,0,0,0,0,0,0,0,
0,0,-2049,-16,67,-8,-17,7,202,0,0,0,0,0,0,0,0,0,0,0,
0,0,-2048,-24,65,-6,-21,6,191,0,0,0,0,0,0,0,0,0,0,0,
0,0,-2046,-23,63,-2,-19,7,199,0,0,0,0,0,0,0,0,0,0,0,
0,0,-2049,-22,63,-6,-16,9,197,0,0,0,0,0,0,0,0,0,0,0,
0,0,-2051,-27,61,-5,-17,3,182,0,0,0,0,0,0,0,0,0,0,0,
0,0,-2047,-30,68,-7,-16,7,194,0,0,0,0,0,0,0,0,0,0,0,
0,0,-2047,-25,66,-7,-21,7,192,0,0,0,0,0,0,0,0,0,0,0,
0,0,-2049,-29,69,-4,-19,8,194,0,0,0,0,0,0,0,0,0,0,0,
0,0,-2052,-24,62,-7,-16,6,187,0,0,0,0,0,0,0,0,0,0,0,
0,0,-2041,-30,69,-9,-19,1,190,0,0,0,0,0,0,0,0,0,0,0,
0,0,-2050,-28,64,-7,-20,4,181,0,0,0,0,0,0,0,0,0,0,0,
0,0,-2051,-25,70,-5,-17,5,195,0,0,0,0,0,0,0,0,0,0,0,
0,0,-2051,-26,67,-4,-21,4,187,0,0,0,0,0,0,0,0,0,0,0,
0,0,-2047,-28,71,-7,-20,3,191,0,0,0,0,0,0,0,0,0,0,0,
0,0,-2039,-28,59,-8,-18,8,193,0,0,0,0,0,0,0,0,0,0,0,
0,0,-2054,-25,64,-7,-21,4,179,0,0,0,0,0,0,0,0,0,0,0,
0,0,-2045,-20,68,-9,-18,6,201,0,0,0,0,0,0,0,0,0,0,0,
0,0,-2043,-27,67,-9,-17,3,193,0,0,0,0,0,0,0,0,0,0,0,
0,0,-2050,-23,67,-6,-18,6,194,0,0,0,0,0,0,0,0,0,0,0,
0,0,-2049,-25,70,-6,-21,5,192,0,0,0,0,0,0,0,0,0,0,0,
0,0,-2046,-28,66,-9,-18,8,192,0,0,0,0,0,0,0,0,0,0,0,
0,0,-2050,-24,71,-8,-20,6,193,0,0,0,0,0,0,0,0,0,0,0,
0,0,-2041,-17,65,-8,-15,4,207,0,0,0,0,0,0,0,0,0,0,0,
0,0,-2049,-25,73,-4,-18,5,200,0,0,0,0,0,0,0,0,0,0,0,
0,0,-2048,-25,62,-7,-16,4,189,0,0,0,0,0,0,0,0,0,0,0,
0,0,-2049,-23,68,-6,-17,3,194,0,0,0,0,0,0,0,0,0,0,0,
0,0,-2045,-22,70,-8,-18,3,199,0,0,0,0,0,0,0,0,0,0,0,
0,0,-2047,-26,68,-9,-17,5,193,0,0,0,0,0,0,0,0,0,0,0,
0,0,-2047,-25,68,-7,-19,7,196,0,0,0,0,0,0,0,0,0,0,0,
0,0,-2046,-28,63,-2,-18,5,193,0,0,0,0,0,0,0,0,0,0,0,
0,0,-2057,-26,62,-7,-19,4,175,0,0,0,0,0,0,0,0,0,0,0,
0,0,-2042,-21,72,-6,-20,4,206,0,0,0,0,0,0,0,0,0,0,0,
0,0,-2051,-33,68,-8,-17,8,185,0,0,0,0,0,0,0,0,0,0,0,
0,0,-2045,-23,72,-7,-15,7,208,0,0,0,0,0,0,0,0,0,0,0,
0,0,-2043,-26,70,-5,-18,8,205,0,0,0,0,0,0,0,0,0,0,0,
0,0,-2049,-32,72,-10,-16,6,189,0,0,0,0,0,0,0,0,0,0,0,
0,0,-2045,-20,63,-5,-18,6,200,0,0,0,0,0,0,0,0,0,0,0,
0,0,-2048,-30,68,-6,-18,7,192,0,0,0,0,0,0,0,0,0,0,0,
0,0,-2046,-18,68,-7,-18,4,202,0,0,0,0,0,0,0,0,0,0,0,
0,0,-2055,-23,71,-8,-20,4,187,0,0,0,0,0,0,0,0,0,0,0,
0,0,-2050,-27,66,-6,-18,7,190,0,0,0,0,0,0,0,0,0,0,0,
0,0,-2043,-31,68,-4,-20,5,194,0,0,0,0,0,0,0,0,0,0,0,
0,0,-2044,-20,65,-4,-18,5,203,0,0,0,0,0,0,0,0,0,0,0,
0,0,-2052,-24,64,-7,-19,7,187,0,0,0,0,0,0,0,0,0,0,0,
0,0,-2044,-28,59,-5,-17,4,188,0,0,0,0,0,0,0,0,0,0,0,
0,0,-2044,-27,67,-5,-18,5,197,0,0,0,0,0,0,0,0,0,0,0,
0,0,-2048,-27,68,-7,-18,7,194,0,0,0,0,0,0,0,0,0,0,0,
0,0,-2042,-23,70,-4,-18,6,208,0,0,0,0,0,0,0,0,0,0,0,
0,0,-2045,-24,63,-8,-18,2,189,0,0,0,0,0,0,0,0,0,0,0,
0,0,-2050,-24,71,-5,-19,7,198,0,0,0,0,0,0,0,0,0,0,0,
0,0,-2049,-25,66,-5,-16,6,195,0,0,0,0,0,0,0,0,0,0,0,
0,0,-2048,-19,71,-6,-20,5,202,0,0,0,0,0,0,0,0,0,0,0,
0,0,-2050,-30,67,-11,-20,5,179,0,0,0,0,0,0,0,0,0,0,0,
0,0,-2042,-38,67,-7,-17,5,187,0,0,0,0,0,0,0,0,0,0,0,
0,0,-2054,-29,61,-5,-17,5,179,0,0,0,0,0,0,0,0,0,0,0,
0,0,-2050,-19,64,-3,-21,9,198,0,0,0,0,0,0,0,0,0,0,0,
0,0,-2047,-27,70,-9,-19,4,191,0,0,0,0,0,0,0,0,0,0,0,
0,0,-2046,-27,70,-4,-17,2,197,0,0,0,0,0,0,0,0,0,0,0,
0,0,-2050,-27,63,-7,-20,9,186,0,0,0,0,0,0,0,0,0,0,0,
0,0,-2049,-19,62,-4,-20,10,198,0,0,0,0,0,0,0,0,0,0,0,
0,0,-2044,-33,58,-8,-16,4,180,0,0,0,0,0,0,0,0,0,0,0,
0,0,-2051,-28,72,-5,-19,4,191,0,0,0,0,0,0,0,0,0,0,0,
0,0,-2050,-22,61,-5,-21,4,185,0,0,0,0,0,0,0,0,0,0,0,
0,0,-2048,-30,63,-5,-21,5,183,0,0,0,0,0,0,0,0,0,0,0,
0,0,-2052,-26,68,-6,-17,3,188,0,0,0,0,0,0,0,0,0,0,0,
0,0,-2044,-28,67,-9,-20,6,191,0,0,0,0,0,0,0,0,0,0,0,
0,0,-2047,-24,62,-6,-19,4,189,0,0,0,0,0,0,0,0,0,0,0,
0,0,-2049,-24,69,-4,-17,4,197,0,0,0,0,0,0,0,0,0,0,0,
0,0,-2052,-29,62,-7,-18,7,181,0,0,0,0,0,0,0,0,0,0,0,
0,0,-2042,-22,63,-7,-18,7,200,0,0,0,0,0,0,0,0,0,0,0,
0,0,-2042,-25,61,-5,-16,3,195,0,0,0,0,0,0,0,0,0,0,0,
0,0,-2050,-22,65,-3,-19,5,194,0,0,0,0,0,0,0,0,0,0,0,
0,0,-2045,-32,63,-8,-20,3,180,0,0,0,0,0,0,0,0,0,0,0,
0,0,-2048,-23,66,-8,-17,7,196,0,0,0,0,0,0,0,0,0,0,0,
0,0,-2047,-24,63,-4,-19,5,193,0,0,0,0,0,0,0,0,0,0,0,
0,0,-2044,-26,70,-5,-17,7,204,0,0,0,0,0,0,0,0,0,0,0,
0,0,-2051,-20,64,-5,-18,6,194,0,0,0,0,0,0,0,0,0,0,0,
0,0,-2047,-25,67,-6,-17,3,194,0,0,0,0,0,0,0,0,0,0,0,
0,0,-2052,-22,65,-6,-19,6,190,0,0,0,0,0,0,0,0,0,0,0,
0,0,-2047,-29,68,-7,-21,6,189,0,0,0,0,0,0,0,0,0,0,0,
0,0,-2049,-25,66,-6,-20,6,190,0,0,0,0,0,0,0,0,0,0,0,
0,0,-2051,-21,70,-5,-18,4,197,0,0,0,0,0,0,0,0,0,0,0,
0,0,-2047,-27,66,-7,-15,8,197,0,0,0,0,0,0,0,0,0,0,0,
0,0,-2047,-22,70,-4,-16,8,208,0,0,0,0,0,0,0,0,0,0,0,
0,0,-2047,-22,70,-4,-16,8,208,0,0,0,0,0,0,0,0,0,0,0,
0,0,-2046,-30,66,-7,-17,4,189,0,0,0,0,0,0,0,0,0,0,0,
0,0,-2044,-26,64,-7,-18,6,194,0,0,0,0,0,0,0,0,0,0,0,
0,0,-2048,-26,65,-8,-17,5,190,0,0,0,0,0,0,0,0,0,0,0,
0,0,-2048,-26,65,-3,-19,8,196,0,0,0,0,0,0,0,0,0,0,0,
0,0,-2050,-21,70,-7,-16,4,198,0,0,0,0,0,0,0,0,0,0,0,
0,0,-2056,-25,66,-5,-17,3,184,0,0,0,0,0,0,0,0,0,0,0,
0,0,-2043,-27,67,-9,-19,4,192,0,0,0,0,0,0,0,0,0,0,0,
0,0,-2048,-21,69,-7,-19,5,198,0,0,0,0,0,0,0,0,0,0,0,
0,0,-2048,-24,64,-6,-19,6,192,0,0,0,0,0,0,0,0,0,0,0,
0,0,-2047,-22,67,-9,-19,4,193,0,0,0,0,0,0,0,0,0,0,0,
0,0,-2050,-26,65,-5,-19,6,189,0,0,0,0,0,0,0,0,0,0,0,
0,0,-2044,-24,71,-8,-17,3,200,0,0,0,0,0,0,0,0,0,0,0,
0,0,-2049,-21,73,-6,-20,5,200,0,0,0,0,0,0,0,0,0,0,0,
0,0,-2043,-23,69,-6,-18,8,206,0,0,0,0,0,0,0,0,0,0,0,
0,0,-2045,-22,67,-6,-18,8,203,0,0,0,0,0,0,0,0,0,0,0,
0,0,-2052,-24,70,-5,-19,8,196,0,0,0,0,0,0,0,0,0,0,0,
0,0,-2047,-34,66,-7,-18,6,185,0,0,0,0,0,0,0,0,0,0,0,
0,0,-2047,-14,60,-5,-18,8,203,0,0,0,0,0,0,0,0,0,0,0,
0,0,-2049,-27,72,-8,-18,7,195,0,0,0,0,0,0,0,0,0,0,0,
0,0,-2049,-27,72,-2,-18,5,199,0,0,0,0,0,0,0,0,0,0,0,
0,0,-2046,-28,64,-9,-18,4,186,0,0,0,0,0,0,0,0,0,0,0,
0,0,-2051,-28,73,-4,-16,3,195,0,0,0,0,0,0,0,0,0,0,0,
0,0,-2051,-29,63,-5,-16,12,192,0,0,0,0,0,0,0,0,0,0,0,
0,0,-2048,-28,68,-6,-16,4,193,0,0,0,0,0,0,0,0,0,0,0,
0,0,-2045,-24,73,-6,-17,4,204,0,0,0,0,0,0,0,0,0,0,0,
0,0,-2048,-20,63,-4,-17,5,198,0,0,0,0,0,0,0,0,0,0,0,
0,0,-2044,-26,57,-3,-17,5,191,0,0,0,0,0,0,0,0,0,0,0,
0,0,-2051,-22,71,-6,-18,6,198,0,0,0,0,0,0,0,0,0,0,0,
0,0,-2050,-30,66,-4,-18,9,191,0,0,0,0,0,0,0,0,0,0,0,
0,0,-2048,-25,72,-7,-16,9,204,0,0,0,0,0,0,0,0,0,0,0,
0,0,-2050,-21,63,-5,-19,1,187,0,0,0,0,0,0,0,0,0,0,0,
0,0,-2056,-32,70,-5,-18,4,181,0,0,0,0,0,0,0,0,0,0,0,
0,0,-2053,-21,66,-8,-19,3,186,0,0,0,0,0,0,0,0,0,0,0,
0,0,-2049,-23,69,-6,-19,6,196,0,0,0,0,0,0,0,0,0,0,0,
0,0,-2048,-22,71,-7,-18,3,198,0,0,0,0,0,0,0,0,0,0,0,
0,0,-2050,-25,66,-8,-17,7,191,0,0,0,0,0,0,0,0,0,0,0,
0,0,-2046,-33,71,-4,-16,9,200,0,0,0,0,0,0,0,0,0,0,0,
0,0,-2045,-22,70,-5,-17,9,209,0,0,0,0,0,0,0,0,0,0,0,
0,0,-2046,-23,69,-3,-17,9,208,0,0,0,0,0,0,0,0,0,0,0,
0,0,-2046,-27,74,-9,-18,3,196,0,0,0,0,0,0,0,0,0,0,0,
0,0,-2054,-27,68,-6,-18,6,187,0,0,0,0,0,0,0,0,0,0,0,
0,0,-2049,-28,65,-8,-18,2,182,0,0,0,0,0,0,0,0,0,0,0,
0,0,-2046,-18,68,-8,-18,3,200,0,0,0,0,0,0,0,0,0,0,0,
0,0,-2048,-29,67,-6,-20,8,191,0,0,0,0,0,0,0,0,0,0,0,
0,0,-2043,-20,57,-11,-18,3,187,0,0,0,0,0,0,0,0,0,0,0,
0,0,-2045,-26,64,-5,-18,9,198,0,0,0,0,0,0,0,0,0,0,0,
0,0,-2041,-21,65,-8,-18,7,203,0,0,0,0,0,0,0,0,0,0,0,
0,0,-2051,-27,61,-7,-18,8,184,0,0,0,0,0,0,0,0,0,0,0,
0,0,-2048,-20,62,-6,-19,8,196,0,0,0,0,0,0,0,0,0,0,0,
0,0,-2046,-25,65,-4,-19,9,199,0,0,0,0,0,0,0,0,0,0,0,
0,0,-2053,-28,70,-8,-20,6,185,0,0,0,0,0,0,0,0,0,0,0,
0,0,-2044,-19,73,-10,-16,3,206,0,0,0,0,0,0,0,0,0,0,0,
0,0,-2045,-22,70,-7,-19,11,207,0,0,0,0,0,0,0,0,0,0,0,
0,0,-2049,-27,72,-7,-19,10,198,0,0,0,0,0,0,0,0,0,0,0,
0,0,-2047,-24,70,-6,-16,7,203,0,0,0,0,0,0,0,0,0,0,0,
0,0,-2041,-24,69,-9,-17,6,203,0,0,0,0,0,0,0,0,0,0,0,
0,0,-2048,-25,73,-6,-18,5,200,0,0,0,0,0,0,0,0,0,0,0,
0,0,-2050,-18,69,-6,-16,8,205,0,0,0,0,0,0,0,0,0,0,0,
0,0,-2050,-18,69,-7,-17,6,201,0,0,0,0,0,0,0,0,0,0,0,
0,0,-2049,-27,65,-4,-20,10,193,0,0,0,0,0,0,0,0,0,0,0,
0,0,-2049,-28,64,-8,-18,8,187,0,0,0,0,0,0,0,0,0,0,0,
0,0,-2049,-21,68,-8,-19,3,192,0,0,0,0,0,0,0,0,0,0,0,
0,0,-2041,-29,69,-9,-16,3,196,0,0,0,0,0,0,0,0,0,0,0,
0,0,-2046,-25,69,-9,-15,4,197,0,0,0,0,0,0,0,0,0,0,0,
0,0,-2045,-21,74,-7,-18,6,208,0,0,0,0,0,0,0,0,0,0,0,
0,0,-2046,-29,69,-7,-16,7,197,0,0,0,0,0,0,0,0,0,0,0,
0,0,-2040,-25,65,-5,-18,7,203,0,0,0,0,0,0,0,0,0,0,0,
0,0,-2045,-14,60,-8,-18,5,199,0,0,0,0,0,0,0,0,0,0,0,
0,0,-2047,-22,67,-9,-17,4,195,0,0,0,0,0,0,0,0,0,0,0,
0,0,-2053,-23,59,-5,-21,5,180,0,0,0,0,0,0,0,0,0,0,0,
0,0,-2051,-26,69,-4,-19,7,194,0,0,0,0,0,0,0,0,0,0,0,
0,0,-2054,-25,69,-3,-18,4,191,0,0,0,0,0,0,0,0,0,0,0,
0,0,-2050,-24,63,-8,-18,6,187,0,0,0,0,0,0,0,0,0,0,0,
0,0,-2046,-17,67,-4,-16,8,211,0,0,0,0,0,0,0,0,0,0,0,
0,0,-2046,-22,69,-6,-16,6,204,0,0,0,0,0,0,0,0,0,0,0,
0,0,-2042,-35,69,-7,-17,4,191,0,0,0,0,0,0,0,0,0,0,0,
0,0,-2044,-27,68,-7,-15,10,204,0,0,0,0,0,0,0,0,0,0,0,
0,0,-2050,-20,71,-11,-21,8,195,0,0,0,0,0,0,0,0,0,0,0,
0,0,-2048,-15,64,-6,-19,5,200,0,0,0,0,0,0,0,0,0,0,0,
0,0,-2046,-31,69,-6,-21,3,187,0,0,0,0,0,0,0,0,0,0,0,
0,0,-2052,-23,66,-5,-17,5,192,0,0,0,0,0,0,0,0,0,0,0,
0,0,-2046,-24,60,-8,-17,6,190,0,0,0,0,0,0,0,0,0,0,0,
0,0,-2055,-27,67,-4,-20,4,183,0,0,0,0,0,0,0,0,0,0,0,
0,0,-2051,-22,65,-10,-17,7,190,0,0,0,0,0,0,0,0,0,0,0,
0,0,-2053,-25,65,-7,-18,5,185,0,0,0,0,0,0,0,0,0,0,0,
0,0,-2054,-18,72,-7,-18,5,198,0,0,0,0,0,0,0,0,0,0,0,
0,0,-2049,-27,61,-8,-18,5,182,0,0,0,0,0,0,0,0,0,0,0,
0,0,-2050,-25,68,-5,-18,4,192,0,0,0,0,0,0,0,0,0,0,0,
0,0,-2048,-30,70,-9,-16,5,191,0,0,0,0,0,0,0,0,0,0,0,
0,0,-2047,-18,67,-6,-20,6,201,0,0,0,0,0,0,0,0,0,0,0,
0,0,-2046,-19,71,-10,-17,2,200,0,0,0,0,0,0,0,0,0,0,0,
0,0,-2043,-32,59,-7,-18,7,185,0,0,0,0,0,0,0,0,0,0,0,
0,0,-2048,-20,71,-4,-17,3,204,0,0,0,0,0,0,0,0,0,0,0,
0,0,-2047,-22,56,-8,-18,2,182,0,0,0,0,0,0,0,0,0,0,0,
0,0,-2047,-27,66,-5,-17,7,196,0,0,0,0,0,0,0,0,0,0,0,
0,0,-2050,-32,71,-7,-18,6,188,0,0,0,0,0,0,0,0,0,0,0,
0,0,-2052,-29,71,-7,-19,6,188,0,0,0,0,0,0,0,0,0,0,0,
0,0,-2050,-26,74,-3,-17,9,205,0,0,0,0,0,0,0,0,0,0,0,
0,0,-2046,-26,67,-5,-19,5,195,0,0,0,0,0,0,0,0,0,0,0,
0,0,-2046,-26,65,-5,-18,8,197,0,0,0,0,0,0,0,0,0,0,0,
0,0,-2049,-27,70,-6,-17,4,193,0,0,0,0,0,0,0,0,0,0,0,
0,0,-2051,-24,70,-6,-17,6,196,0,0,0,0,0,0,0,0,0,0,0,
0,0,-2049,-23,62,-5,-19,7,191,0,0,0,0,0,0,0,0,0,0,0,
0,0,-2048,-25,72,-8,-17,6,199,0,0,0,0,0,0,0,0,0,0,0,
0,0,-2044,-29,68,-3,-18,7,200,0,0,0,0,0,0,0,0,0,0,0,
0,0,-2044,-29,68,-3,-18,7,200,0,0,0,0,0,0,0,0,0,0,0,
0,0,-2047,-23,71,-7,-19,4,198,0,0,0,0,0,0,0,0,0,0,0,
0,0,-2050,-25,61,-9,-17,3,181,0,0,0,0,0,0,0,0,0,0,0,
0,0,-2048,-22,68,-7,-19,8,199,0,0,0,0,0,0,0,0,0,0,0,
0,0,-2042,-19,67,-7,-18,5,205,0,0,0,0,0,0,0,0,0,0,0,
0,0,-2042,-25,59,-3,-19,6,195,0,0,0,0,0,0,0,0,0,0,0,
0,0,-2042,-25,59,-4,-17,7,197,0,0,0,0,0,0,0,0,0,0,0,
0,0,-2048,-20,74,-5,-16,6,210,0,0,0,0,0,0,0,0,0,0,0,
0,0,-2044,-19,67,-6,-19,4,202,0,0,0,0,0,0,0,0,0,0,0,
0,0,-2054,-18,70,-6,-19,2,193,0,0,0,0,0,0,0,0,0,0,0,
0,0,-2054,-18,70,-7,-15,7,201,0,0,0,0,0,0,0,0,0,0,0,
0,0,-2045,-22,68,-6,-19,7,202,0,0,0,0,0,0,0,0,0,0,0,
0,0,-2045,-24,62,-4,-16,9,201,0,0,0,0,0,0,0,0,0,0,0,
0,0,-2046,-21,62,-6,-17,3,194,0,0,0,0,0,0,0,0,0,0,0,
0,0,-2050,-29,68,-10,-19,5,183,0,0,0,0,0,0,0,0,0,0,0,
0,0,-2050,-22,70,-7,-19,7,197,0,0,0,0,0,0,0,0,0,0,0,
0,0,-2054,-29,65,-4,-18,6,184,0,0,0,0,0,0,0,0,0,0,0,
0,0,-2048,-19,66,-7,-20,3,194,0,0,0,0,0,0,0,0,0,0,0,
0,0,-2052,-28,70,-6,-17,7,192,0,0,0,0,0,0,0,0,0,0,0,
0,0,-2045,-26,66,-6,-20,8,196,0,0,0,0,0,0,0,0,0,0,0,
0,0,-2043,-25,67,-6,-20,8,200,0,0,0,0,0,0,0,0,0,0,0,
0,0,-2043,-22,71,-7,-15,6,209,0,0,0,0,0,0,0,0,0,0,0,
0,0,-2046,-18,70,-4,-18,4,207,0,0,0,0,0,0,0,0,0,0,0,
0,0,-2050,-26,62,-7,-18,8,187,0,0,0,0,0,0,0,0,0,0,0,
0,0,-2045,-27,65,-1,-17,8,202,0,0,0,0,0,0,0,0,0,0,0,
0,0,-2049,-26,73,-6,-17,6,199,0,0,0,0,0,0,0,0,0,0,0,
0,0,-2051,-19,68,-9,-19,6,194,0,0,0,0,0,0,0,0,0,0,0,
0,0,-2046,-26,59,-5,-20,5,186,0,0,0,0,0,0,0,0,0,0,0,
0,0,-2047,-24,69,-4,-18,4,199,0,0,0,0,0,0,0,0,0,0,0,
0,0,-2046,-21,62,-6,-21,5,192,0,0,0,0,0,0,0,0,0,0,0,
0,0,-2042,-24,70,-5,-17,4,205,0,0,0,0,0,0,0,0,0,0,0,
0,0,-2052,-28,69,-7,-18,5,187,0,0,0,0,0,0,0,0,0,0,0,
0,0,-2051,-24,70,-5,-17,6,197,0,0,0,0,0,0,0,0,0,0,0,
0,0,-2042,-23,64,-10,-16,5,197,0,0,0,0,0,0,0,0,0,0,0,
0,0,-2051,-22,66,-8,-20,6,189,0,0,0,0,0,0,0,0,0,0,0,
0,0,-2047,-25,74,-6,-16,8,207,0,0,0,0,0,0,0,0,0,0,0,
0,0,-2044,-25,66,-7,-20,5,194,0,0,0,0,0,0,0,0,0,0,0,
0,0,-2049,-27,65,-7,-17,7,190,0,0,0,0,0,0,0,0,0,0,0,
0,0,-2047,-26,68,-6,-17,9,200,0,0,0,0,0,0,0,0,0,0,0,
0,0,-2045,-25,71,-5,-20,3,198,0,0,0,0,0,0,0,0,0,0,0,
0,0,-2046,-24,61,-7,-16,3,190,0,0,0,0,0,0,0,0,0,0,0,
0,0,-2051,-22,67,-4,-19,6,195,0,0,0,0,0,0,0,0,0,0,0,
0,0,-2048,-27,63,-5,-17,7,192,0,0,0,0,0,0,0,0,0,0,0,
0,0,-2048,-23,65,-5,-18,5,195,0,0,0,0,0,0,0,0,0,0,0,
0,0,-2045,-27,69,-4,-18,3,197,0,0,0,0,0,0,0,0,0,0,0,
0,0,-2047,-25,65,-5,-21,5,191,0,0,0,0,0,0,0,0,0,0,0,
0,0,-2053,-24,75,-6,-20,7,197,0,0,0,0,0,0,0,0,0,0,0,
0,0,-2050,-19,66,-6,-20,6,195,0,0,0,0,0,0,0,0,0,0,0,
0,0,-2049,-23,66,-5,-18,7,196,0,0,0,0,0,0,0,0,0,0,0,
0,0,-2047,-26,67,-9,-21,4,187,0,0,0,0,0,0,0,0,0,0,0,
0,0,-2047,-20,65,-8,-18,8,199,0,0,0,0,0,0,0,0,0,0,0,
0,0,-2046,-25,71,-7,-19,5,198,0,0,0,0,0,0,0,0,0,0,0,
0,0,-2041,-14,65,-8,-21,4,204,0,0,0,0,0,0,0,0,0,0,0,
0,0,-2048,-20,63,-6,-18,6,196,0,0,0,0,0,0,0,0,0,0,0,
0,0,-2044,-29,68,-5,-21,5,193,0,0,0,0,0,0,0,0,0,0,0,
0,0,-2044,-23,65,-9,-18,4,194,0,0,0,0,0,0,0,0,0,0,0,
0,0,-2048,-21,75,-4,-21,4,204,0,0,0,0,0,0,0,0,0,0,0,
0,0,-2049,-22,65,-8,-18,4,190,0,0,0,0,0,0,0,0,0,0,0,
0,0,-2051,-25,56,-5,-20,11,184,0,0,0,0,0,0,0,0,0,0,0,
0,0,-2043,-32,67,-9,-16,5,191,0,0,0,0,0,0,0,0,0,0,0,
0,0,-2050,-16,67,-2,-19,1,199,0,0,0,0,0,0,0,0,0,0,0,
0,0,-2052,-28,68,-6,-19,3,184,0,0,0,0,0,0,0,0,0,0,0,
0,0,-2051,-28,67,-5,-21,7,187,0,0,0,0,0,0,0,0,0,0,0,
0,0,-2050,-27,66,-7,-20,4,184,0,0,0,0,0,0,0,0,0,0,0,
0,0,-2051,-20,70,-8,-19,6,196,0,0,0,0,0,0,0,0,0,0,0,
0,0,-2049,-26,70,-7,-18,6,194,0,0,0,0,0,0,0,0,0,0,0,
0,0,-2047,-28,64,-7,-19,2,184,0,0,0,0,0,0,0,0,0,0,0,
0,0,-2050,-29,64,-1,-15,6,193,0,0,0,0,0,0,0,0,0,0,0,
0,0,-2047,-24,64,-9,-20,5,188,0,0,0,0,0,0,0,0,0,0,0,
0,0,-2055,-23,68,-10,-18,6,186,0,0,0,0,0,0,0,0,0,0,0,
0,0,-2045,-25,70,-8,-19,8,200,0,0,0,0,0,0,0,0,0,0,0,
0,0,-2043,-21,64,-6,-17,3,199,0,0,0,0,0,0,0,0,0,0,0,
0,0,-2053,-25,55,-4,-19,9,181,0,0,0,0,0,0,0,0,0,0,0,
0,0,-2046,-27,70,-7,-19,5,195,0,0,0,0,0,0,0,0,0,0,0,
0,0,-2047,-32,68,-9,-18,3,184,0,0,0,0,0,0,0,0,0,0,0,
0,0,-2048,-26,67,-7,-14,5,196,0,0,0,0,0,0,0,0,0,0,0,
0,0,-2046,-29,65,-7,-20,6,188,0,0,0,0,0,0,0,0,0,0,0,
0,0,-2041,-25,62,-9,-19,7,194,0,0,0,0,0,0,0,0,0,0,0,
0,0,-2041,-25,64,-9,-21,6,193,0,0,0,0,0,0,0,0,0,0,0,
0,0,-2041,-27,68,-7,-20,7,199,0,0,0,0,0,0,0,0,0,0,0,
0,0,-2055,-22,67,-8,-17,3,186,0,0,0,0,0,0,0,0,0,0,0,
0,0,-2043,-23,70,-8,-18,6,203,0,0,0,0,0,0,0,0,0,0,0,
0,0,-2047,-26,64,-6,-19,3,188,0,0,0,0,0,0,0,0,0,0,0,
0,0,-2045,-29,71,-9,-20,5,192,0,0,0,0,0,0,0,0,0,0,0,
0,0,-2052,-19,70,-8,-17,7,199,0,0,0,0,0,0,0,0,0,0,0,
0,0,-2052,-25,69,-5,-16,10,199,0,0,0,0,0,0,0,0,0,0,0,
0,0,-2048,-24,72,-4,-20,4,199,0,0,0,0,0,0,0,0,0,0,0,
0,0,-2049,-22,74,-5,-18,7,205,0,0,0,0,0,0,0,0,0,0,0,
0,0,-2048,-30,70,-5,-17,7,196,0,0,0,0,0,0,0,0,0,0,0,
0,0,-2043,-27,63,-10,-17,5,190,0,0,0,0,0,0,0,0,0,0,0,
0,0,-2050,-23,69,-6,-19,10,199,0,0,0,0,0,0,0,0,0,0,0,
0,0,-2054,-24,70,-5,-18,4,191,0,0,0,0,0,0,0,0,0,0,0,
0,0,-2052,-25,65,-7,-19,4,184,0,0,0,0,0,0,0,0,0,0,0,
0,0,-2044,-27,61,-7,-19,7,190,0,0,0,0,0,0,0,0,0,0,0,
0,0,-2047,-27,62,-4,-18,8,193,0,0,0,0,0,0,0,0,0,0,0,
0,0,-2046,-17,71,-4,-19,3,207,0,0,0,0,0,0,0,0,0,0,0,
0,0,-2041,-28,66,-9,-16,6,197,0,0,0,0,0,0,0,0,0,0,0,
0,0,-2053,-25,61,-3,-18,7,187,0,0,0,0,0,0,0,0,0,0,0,
0,0,-2047,-18,67,-6,-18,5,202,0,0,0,0,0,0,0,0,0,0,0,
0,0,-2045,-23,67,-5,-21,6,198,0,0,0,0,0,0,0,0,0,0,0,
0,0,-2045,-23,64,-7,-22,8,194,0,0,0,0,0,0,0,0,0,0,0,
0,0,-2046,-20,65,-9,-17,8,200,0,0,0,0,0,0,0,0,0,0,0,
0,0,-2048,-23,64,-6,-20,9,195,0,0,0,0,0,0,0,0,0,0,0,
0,0,-2047,-25,68,-8,-20,4,191,0,0,0,0,0,0,0,0,0,0,0,
0,0,-2049,-24,62,-8,-17,10,192,0,0,0,0,0,0,0,0,0,0,0,
0,0,-2048,-27,66,-4,-19,5,192,0,0,0,0,0,0,0,0,0,0,0,
0,0,-2047,-19,62,-6,-16,5,198,0,0,0,0,0,0,0,0,0,0,0,
0,0,-2045,-29,62,-5,-19,6,189,0,0,0,0,0,0,0,0,0,0,0,
0,0,-2046,-23,61,-3,-15,7,200,0,0,0,0,0,0,0,0,0,0,0,
0,0,-2046,-23,61,-3,-15,7,200,0,0,0,0,0,0,0,0,0,0,0,
0,0,-2051,-28,71,-8,-21,8,189,0,0,0,0,0,0,0,0,0,0,0,
0,0,-2048,-26,60,-8,-18,5,184,0,0,0,0,0,0,0,0,0,0,0,
0,0,-2047,-29,65,-4,-19,8,193,0,0,0,0,0,0,0,0,0,0,0,
0,0,-2047,-29,65,-4,-19,8,193,0,0,0,0,0,0,0,0,0,0,0,
0,0,-2045,-25,57,-5,-17,6,190,0,0,0,0,0,0,0,0,0,0,0,
0,0,-2045,-27,67,-4,-18,5,197,0,0,0,0,0,0,0,0,0,0,0,
0,0,-2046,-26,66,-7,-18,6,194,0,0,0,0,0,0,0,0,0,0,0,
0,0,-2045,-24,64,-7,-17,4,194,0,0,0,0,0,0,0,0,0,0,0,
0,0,-2045,-23,63,-9,-15,4,194,0,0,0,0,0,0,0,0,0,0,0,
0,0,-2045,-23,63,-4,-14,3,199,0,0,0,0,0,0,0,0,0,0,0,
0,0,-2047,-22,67,-5,-18,5,199,0,0,0,0,0,0,0,0,0,0,0,
0,0,-2049,-22,70,-3,-18,7,203,0,0,0,0,0,0,0,0,0,0,0,
0,0,-2048,-30,64,-8,-18,5,184,0,0,0,0,0,0,0,0,0,0,0,
0,0,-2039,-21,66,-7,-18,5,205,0,0,0,0,0,0,0,0,0,0,0,
0,0,-2047,-24,66,-8,-14,5,197,0,0,0,0,0,0,0,0,0,0,0,
0,0,-2053,-20,73,-6,-21,5,196,0,0,0,0,0,0,0,0,0,0,0,
0,0,-2045,-27,61,-8,-16,4,188,0,0,0,0,0,0,0,0,0,0,0,
0,0,-2045,-25,67,-7,-20,7,196,0,0,0,0,0,0,0,0,0,0,0,
0,0,-2046,-19,63,-5,-14,4,202,0,0,0,0,0,0,0,0,0,0,0,
0,0,-2050,-25,65,-9,-18,2,183,0,0,0,0,0,0,0,0,0,0,0,
0,0,-2050,-23,63,-3,-19,6,192,0,0,0,0,0,0,0,0,0,0,0,
0,0,-2046,-28,75,-4,-16,7,207,0,0,0,0,0,0,0,0,0,0,0,
0,0,-2045,-26,74,-5,-19,6,204,0,0,0,0,0,0,0,0,0,0,0,
0,0,-2049,-20,68,-5,-19,6,199,0,0,0,0,0,0,0,0,0,0,0,
0,0,-2046,-24,68,-5,-15,5,202,0,0,0,0,0,0,0,0,0,0,0,
0,0,-2044,-30,70,-8,-18,9,198,0,0,0,0,0,0,0,0,0,0,0,
0,0,-2047,-23,71,-5,-16,7,206,0,0,0,0,0,0,0,0,0,0,0,
0,0,-2048,-21,67,-7,-18,4,196,0,0,0,0,0,0,0,0,0,0,0,
0,0,-2050,-22,62,-7,-18,3,186,0,0,0,0,0,0,0,0,0,0,0,
0,0,-2052,-23,66,-4,-18,6,193,0,0,0,0,0,0,0,0,0,0,0,
0,0,-2047,-25,58,-5,-19,8,189,0,0,0,0,0,0,0,0,0,0,0,
0,0,-2048,-25,71,-7,-19,3,194,0,0,0,0,0,0,0,0,0,0,0,
0,0,-2049,-26,65,-4,-19,7,192,0,0,0,0,0,0,0,0,0,0,0,
0,0,-2047,-21,67,-4,-19,7,202,0,0,0,0,0,0,0,0,0,0,0,
0,0,-2051,-30,62,-1,-20,9,187,0,0,0,0,0,0,0,0,0,0,0,
0,0,-2052,-22,62,-2,-19,4,189,0,0,0,0,0,0,0,0,0,0,0,
0,0,-2052,-29,74,-7,-18,4,190,0,0,0,0,0,0,0,0,0,0,0,
0,0,-2046,-25,71,-6,-20,6,199,0,0,0,0,0,0,0,0,0,0,0,
0,0,-2050,-27,68,-6,-19,4,188,0,0,0,0,0,0,0,0,0,0,0,
0,0,-2053,-23,68,-7,-19,4,188,0,0,0,0,0,0,0,0,0,0,0,
0,0,-2046,-26,67,-10,-18,3,189,0,0,0,0,0,0,0,0,0,0,0,
0,0,-2051,-27,66,-7,-20,3,182,0,0,0,0,0,0,0,0,0,0,0,
0,0,-2046,-21,62,-5,-20,5,194,0,0,0,0,0,0,0,0,0,0,0,
0,0,-2040,-21,65,-7,-18,4,202,0,0,0,0,0,0,0,0,0,0,0,
0,0,-2050,-24,61,-6,-19,6,186,0,0,0,0,0,0,0,0,0,0,0,
0,0,-2050,-30,65,-8,-17,7,185,0,0,0,0,0,0,0,0,0,0,0,
0,0,-2050,-21,69,-9,-19,4,192,0,0,0,0,0,0,0,0,0,0,0,
0,0,-2043,-21,62,-8,-19,4,194,0,0,0,0,0,0,0,0,0,0,0,
0,0,-2045,-26,71,-6,-16,5,202,0,0,0,0,0,0,0,0,0,0,0,
0,0,-2048,-29,68,-6,-20,6,190,0,0,0,0,0,0,0,0,0,0,0,
0,0,-2046,-23,62,-8,-19,6,191,0,0,0,0,0,0,0,0,0,0,0,
0,0,-2049,-22,63,-9,-19,5,187,0,0,0,0,0,0,0,0,0,0,0,
0,0,-2045,-30,72,-5,-18,6,199,0,0,0,0,0,0,0,0,0,0,0,
0,0,-2045,-15,63,-5,-18,7,206,0,0,0,0,0,0,0,0,0,0,0,
0,0,-2046,-23,61,-5,-19,5,192,0,0,0,0,0,0,0,0,0,0,0,
0,0,-2048,-28,63,-7,-17,4,186,0,0,0,0,0,0,0,0,0,0,0,
0,0,-2041,-28,67,-5,-14,4,202,0,0,0,0,0,0,0,0,0,0,0,
0,0,-2051,-24,70,-6,-22,3,188,0,0,0,0,0,0,0,0,0,0,0,
0,0,-2045,-25,61,-7,-17,6,192,0,0,0,0,0,0,0,0,0,0,0,
0,0,-2042,-20,65,-4,-15,3,206,0,0,0,0,0,0,0,0,0,0,0,
0,0,-2042,-20,67,-5,-17,5,207,0,0,0,0,0,0,0,0,0,0,0,
0,0,-2049,-26,65,-5,-19,7,191,0,0,0,0,0,0,0,0,0,0,0,
0,0,-2052,-24,69,-6,-18,4,191,0,0,0,0,0,0,0,0,0,0,0,
0,0,-2053,-25,64,-5,-17,6,188,0,0,0,0,0,0,0,0,0,0,0,
0,0,-2048,-18,62,-5,-16,4,198,0,0,0,0,0,0,0,0,0,0,0,
0,0,-2044,-31,68,-9,-21,4,186,0,0,0,0,0,0,0,0,0,0,0,
0,0,-2052,-21,64,-4,-19,6,192,0,0,0,0,0,0,0,0,0,0,0,
0,0,-2048,-28,71,-6,-20,5,193,0,0,0,0,0,0,0,0,0,0,0,
0,0,-2049,-19,66,-5,-22,6,195,0,0,0,0,0,0,0,0,0,0,0,
0,0,-2052,-25,69,-5,-16,8,197,0,0,0,0,0,0,0,0,0,0,0,
0,0,-2051,-26,60,-10,-16,2,177,0,0,0,0,0,0,0,0,0,0,0,
0,0,-2054,-27,71,-6,-16,6,192,0,0,0,0,0,0,0,0,0,0,0,
0,0,-2047,-21,68,-7,-20,9,201,0,0,0,0,0,0,0,0,0,0,0,
0,0,-2056,-25,66,-8,-21,7,181,0,0,0,0,0,0,0,0,0,0,0,
0,0,-2048,-16,68,-7,-17,8,207,0,0,0,0,0,0,0,0,0,0,0,
0,0,-2048,-31,69,-3,-18,7,195,0,0,0,0,0,0,0,0,0,0,0,
0,0,-2044,-27,62,-3,-19,4,192,0,0,0,0,0,0,0,0,0,0,0,
0,0,-2050,-25,60,-6,-16,6,187,0,0,0,0,0,0,0,0,0,0,0,
0,0,-2049,-23,64,-8,-17,8,193,0,0,0,0,0,0,0,0,0,0,0,
0,0,-2042,-24,68,-8,-17,6,202,0,0,0,0,0,0,0,0,0,0,0,
0,0,-2054,-27,71,-7,-18,3,186,0,0,0,0,0,0,0,0,0,0,0,
0,0,-2054,-25,66,-5,-14,3,189,0,0,0,0,0,0,0,0,0,0,0,
0,0,-2048,-15,67,-5,-14,5,209,0,0,0,0,0,0,0,0,0,0,0,
0,0,-2049,-25,66,-9,-18,6,189,0,0,0,0,0,0,0,0,0,0,0,
0,0,-2049,-17,65,-6,-15,5,201,0,0,0,0,0,0,0,0,0,0,0,
0,0,-2045,-26,68,-5,-14,5,202,0,0,0,0,0,0,0,0,0,0,0,
0,0,-2048,-23,68,-12,-16,3,191,0,0,0,0,0,0,0,0,0,0,0,
0,0,-2052,-25,61,-8,-18,7,183,0,0,0,0,0,0,0,0,0,0,0,
0,0,-2044,-30,66,-7,-19,7,192,0,0,0,0,0,0,0,0,0,0,0,
0,0,-2051,-24,60,-8,-16,7,186,0,0,0,0,0,0,0,0,0,0,0,
0,0,-2050,-26,65,-5,-21,6,187,0,0,0,0,0,0,0,0,0,0,0,
0,0,-2042,-27,61,-3,-20,7,195,0,0,0,0,0,0,0,0,0,0,0,
0,0,-2053,-32,54,-3,-18,5,171,0,0,0,0,0,0,0,0,0,0,0,
0,0,-2056,-26,68,-9,-16,3,182,0,0,0,0,0,0,0,0,0,0,0,
0,0,-2053,-27,69,-8,-19,7,187,0,0,0,0,0,0,0,0,0,0,0,
0,0,-2050,-22,66,-6,-18,7,195,0,0,0,0,0,0,0,0,0,0,0,
0,0,-2046,-24,67,-4,-20,6,198,0,0,0,0,0,0,0,0,0,0,0,
0,0,-2049,-24,66,-9,-16,6,192,0,0,0,0,0,0,0,0,0,0,0,
0,0,-2041,-23,70,-4,-19,4,206,0,0,0,0,0,0,0,0,0,0,0,
0,0,-2048,-34,68,-7,-18,7,187,0,0,0,0,0,0,0,0,0,0,0,
0,0,-2046,-23,61,-6,-17,5,193,0,0,0,0,0,0,0,0,0,0,0,
0,0,-2041,-31,63,-7,-20,4,187,0,0,0,0,0,0,0,0,0,0,0,
0,0,-2042,-25,58,-2,-20,4,192,0,0,0,0,0,0,0,0,0,0,0,
0,0,-2048,-30,63,-2,-18,7,191,0,0,0,0,0,0,0,0,0,0,0,
0,0,-2046,-25,63,-5,-17,5,194,0,0,0,0,0,0,0,0,0,0,0,
0,0,-2049,-23,61,-5,-18,6,190,0,0,0,0,0,0,0,0,0,0,0,
0,0,-2043,-24,66,-4,-16,5,203,0,0,0,0,0,0,0,0,0,0,0,
0,0,-2044,-22,67,-5,-18,6,203,0,0,0,0,0,0,0,0,0,0,0,
0,0,-2052,-28,59,-5,-19,7,180,0,0,0,0,0,0,0,0,0,0,0,
0,0,-2052,-28,59,-5,-19,7,180,0,0,0,0,0,0,0,0,0,0,0,
0,0,-2048,-21,60,-8,-17,3,188,0,0,0,0,0,0,0,0,0,0,0,
0,0,-2052,-24,61,-7,-17,3,182,0,0,0,0,0,0,0,0,0,0,0,
0,0,-2045,-21,66,-8,-17,6,200,0,0,0,0,0,0,0,0,0,0,0,
0,0,-2045,-21,66,-8,-17,6,200,0,0,0,0,0,0,0,0,0,0,0,
0,0,-2042,-21,66,-7,-20,5,200,0,0,0,0,0,0,0,0,0,0,0,
0,0,-2044,-23,69,-8,-19,6,200,0,0,0,0,0,0,0,0,0,0,0,
0,0,-2045,-25,75,-6,-20,9,207,0,0,0,0,0,0,0,0,0,0,0,
0,0,-2045,-25,75,-8,-18,6,204,0,0,0,0,0,0,0,0,0,0,0,
0,0,-2047,-22,64,-2,-20,8,200,0,0,0,0,0,0,0,0,0,0,0,
0,0,-2049,-21,69,-7,-18,4,196,0,0,0,0,0,0,0,0,0,0,0,
0,0,-2045,-26,64,-7,-18,3,190,0,0,0,0,0,0,0,0,0,0,0,
0,0,-2049,-30,67,-5,-17,5,189,0,0,0,0,0,0,0,0,0,0,0,
0,0,-2045,-29,65,-6,-15,6,195,0,0,0,0,0,0,0,0,0,0,0,
0,0,-2048,-21,69,-8,-17,8,202,0,0,0,0,0,0,0,0,0,0,0,
0,0,-2045,-22,60,-6,-19,3,190,0,0,0,0,0,0,0,0,0,0,0,
0,0,-2047,-26,59,-6,-18,3,184,0,0,0,0,0,0,0,0,0,0,0,
0,0,-2048,-31,59,-5,-19,7,182,0,0,0,0,0,0,0,0,0,0,0,
0,0,-2045,-27,69,-5,-17,6,200,0,0,0,0,0,0,0,0,0,0,0,
0,0,-2043,-26,61,-5,-15,5,196,0,0,0,0,0,0,0,0,0,0,0,
0,0,-2047,-31,72,-8,-17,4,192,0,0,0,0,0,0,0,0,0,0,0,
0,0,-2043,-20,59,-7,-18,5,195,0,0,0,0,0,0,0,0,0,0,0,
0,0,-2055,-24,72,-4,-19,2,190,0,0,0,0,0,0,0,0,0,0,0,
0,0,-2053,-24,58,-7,-19,7,180,0,0,0,0,0,0,0,0,0,0,0,
0,0,-2046,-17,69,-5,-17,8,211,0,0,0,0,0,0,0,0,0,0,0,
0,0,-2050,-24,61,-4,-18,6,189,0,0,0,0,0,0,0,0,0,0,0,
0,0,-2048,-28,58,-4,-15,10,192,0,0,0,0,0,0,0,0,0,0,0,
0,0,-2043,-19,64,-7,-20,6,200,0,0,0,0,0,0,0,0,0,0,0,
0,0,-2050,-20,62,-8,-18,6,190,0,0,0,0,0,0,0,0,0,0,0,
0,0,-2053,-26,69,-6,-16,3,189,0,0,0,0,0,0,0,0,0,0,0,
0,0,-2050,-31,64,-5,-19,7,184,0,0,0,0,0,0,0,0,0,0,0,
0,0,-2047,-22,57,-7,-20,3,183,0,0,0,0,0,0,0,0,0,0,0,
0,0,-2041,-27,65,-8,-17,2,193,0,0,0,0,0,0,0,0,0,0,0,
0,0,-2050,-23,70,-3,-19,6,199,0,0,0,0,0,0,0,0,0,0,0,
0,0,-2046,-22,68,-6,-20,9,202,0,0,0,0,0,0,0,0,0,0,0,
0,0,-2049,-13,61,-7,-20,4,194,0,0,0,0,0,0,0,0,0,0,0,
0,0,-2054,-27,71,-5,-16,9,196,0,0,0,0,0,0,0,0,0,0,0,
0,0,-2050,-20,68,-3,-18,10,205,0,0,0,0,0,0,0,0,0,0,0,
0,0,-2049,-27,62,-1,-18,7,192,0,0,0,0,0,0,0,0,0,0,0,
0,0,-2046,-25,65,-4,-18,7,198,0,0,0,0,0,0,0,0,0,0,0,
0,0,-2048,-26,67,-5,-16,8,199,0,0,0,0,0,0,0,0,0,0,0,
0,0,-2051,-32,66,-7,-18,3,179,0,0,0,0,0,0,0,0,0,0,0,
0,0,-2047,-30,61,-5,-16,6,188,0,0,0,0,0,0,0,0,0,0,0,
0,0,-2058,-25,56,-2,-19,4,174,0,0,0,0,0,0,0,0,0,0,0,
0,0,-2041,-19,66,-5,-19,3,204,0,0,0,0,0,0,0,0,0,0,0,
0,0,-2040,-20,63,-4,-19,6,205,0,0,0,0,0,0,0,0,0,0,0,
0,0,-2043,-29,61,-8,-18,4,186,0,0,0,0,0,0,0,0,0,0,0,
0,0,-2048,-19,59,-4,-17,5,195,0,0,0,0,0,0,0,0,0,0,0,
0,0,-2050,-24,67,-7,-18,7,193,0,0,0,0,0,0,0,0,0,0,0,
0,0,-2051,-19,60,-6,-21,9,190,0,0,0,0,0,0,0,0,0,0,0,
0,0,-2046,-29,74,-5,-18,10,205,0,0,0,0,0,0,0,0,0,0,0,
0,0,-2048,-29,61,-3,-17,8,191,0,0,0,0,0,0,0,0,0,0,0,
0,0,-2045,-20,62,-6,-19,7,198,0,0,0,0,0,0,0,0,0,0,0,
0,0,-2047,-26,66,-6,-18,8,196,0,0,0,0,0,0,0,0,0,0,0,
0,0,-2051,-28,70,-9,-19,3,184,0,0,0,0,0,0,0,0,0,0,0,
0,0,-2047,-20,66,-6,-20,3,195,0,0,0,0,0,0,0,0,0,0,0,
0,0,-2053,-29,69,-6,-18,5,186,0,0,0,0,0,0,0,0,0,0,0,
0,0,-2053,-27,62,-7,-17,8,184,0,0,0,0,0,0,0,0,0,0,0,
0,0,-2049,-29,65,-7,-18,9,189,0,0,0,0,0,0,0,0,0,0,0,
0,0,-2045,-14,73,-4,-17,6,218,0,0,0,0,0,0,0,0,0,0,0,
0,0,-2053,-29,65,-5,-18,6,184,0,0,0,0,0,0,0,0,0,0,0,
0,0,-2050,-24,65,-9,-16,6,190,0,0,0,0,0,0,0,0,0,0,0,
0,0,-2051,-27,66,-6,-19,6,187,0,0,0,0,0,0,0,0,0,0,0,
0,0,-2050,-26,59,-6,-18,6,183,0,0,0,0,0,0,0,0,0,0,0,
0,0,-2049,-26,61,-8,-18,1,179,0,0,0,0,0,0,0,0,0,0,0,
0,0,-2043,-37,66,-6,-17,8,190,0,0,0,0,0,0,0,0,0,0,0,
0,0,-2038,-21,65,-7,-16,8,210,0,0,0,0,0,0,0,0,0,0,0,
0,0,-2055,-25,65,-5,-20,6,184,0,0,0,0,0,0,0,0,0,0,0,
0,0,-2052,-25,70,-6,-18,6,193,0,0,0,0,0,0,0,0,0,0,0,
0,0,-2043,-22,65,-8,-18,4,197,0,0,0,0,0,0,0,0,0,0,0,
0,0,-2049,-23,71,-6,-23,6,194,0,0,0,0,0,0,0,0,0,0,0,
0,0,-2046,-20,63,-6,-22,4,192,0,0,0,0,0,0,0,0,0,0,0,
0,0,-2043,-26,59,-8,-18,4,187,0,0,0,0,0,0,0,0,0,0,0,
0,0,-2046,-29,71,-8,-19,7,195,0,0,0,0,0,0,0,0,0,0,0,
0,0,-2051,-30,66,-4,-19,5,185,0,0,0,0,0,0,0,0,0,0,0,
0,0,-2049,-24,66,-9,-14,7,195,0,0,0,0,0,0,0,0,0,0,0,
0,0,-2049,-25,60,-4,-21,6,185,0,0,0,0,0,0,0,0,0,0,0,
0,0,-2047,-27,65,-5,-17,8,196,0,0,0,0,0,0,0,0,0,0,0,
0,0,-2041,-16,65,-7,-18,4,206,0,0,0,0,0,0,0,0,0,0,0,
0,0,-2048,-21,68,-5,-18,4,199,0,0,0,0,0,0,0,0,0,0,0,
0,0,-2041,-26,60,-8,-20,6,190,0,0,0,0,0,0,0,0,0,0,0,
0,0,-2044,-22,70,-7,-19,7,204,0,0,0,0,0,0,0,0,0,0,0,
0,0,-2051,-32,61,-4,-20,8,180,0,0,0,0,0,0,0,0,0,0,0,
0,0,-2044,-22,62,-9,-19,7,194,0,0,0,0,0,0,0,0,0,0,0,
0,0,-2043,-28,66,-2,-19,8,201,0,0,0,0,0,0,0,0,0,0,0,
0,0,-2045,-29,63,-7,-19,5,187,0,0,0,0,0,0,0,0,0,0,0,
0,0,-2054,-26,66,-9,-17,6,184,0,0,0,0,0,0,0,0,0,0,0,
0,0,-2040,-24,67,-2,-18,5,207,0,0,0,0,0,0,0,0,0,0,0,
0,0,-2049,-16,76,-8,-19,6,208,0,0,0,0,0,0,0,0,0,0,0,
0,0,-2048,-29,70,-7,-19,5,191,0,0,0,0,0,0,0,0,0,0,0,
0,0,-2054,-31,61,-7,-17,5,175,0,0,0,0,0,0,0,0,0,0,0,
0,0,-2052,-24,65,-8,-19,6,186,0,0,0,0,0,0,0,0,0,0,0,
0,0,-2048,-24,66,-6,-15,8,200,0,0,0,0,0,0,0,0,0,0,0,
0,0,-2046,-31,67,-6,-19,6,190,0,0,0,0,0,0,0,0,0,0,0,
0,0,-2054,-29,71,-5,-21,5,185,0,0,0,0,0,0,0,0,0,0,0,
0,0,-2045,-30,64,-6,-19,7,190,0,0,0,0,0,0,0,0,0,0,0,
0,0,-2045,-27,65,-9,-18,6,191,0,0,0,0,0,0,0,0,0,0,0,
0,0,-2054,-25,66,-7,-17,7,188,0,0,0,0,0,0,0,0,0,0,0,
0,0,-2049,-17,64,-4,-14,9,207,0,0,0,0,0,0,0,0,0,0,0,
0,0,-2046,-25,64,-4,-18,2,192,0,0,0,0,0,0,0,0,0,0,0,
0,0,-2046,-23,65,-3,-17,4,199,0,0,0,0,0,0,0,0,0,0,0,
0,0,-2053,-25,64,-7,-14,8,191,0,0,0,0,0,0,0,0,0,0,0,
0,0,-2040,-19,65,-6,-20,5,204,0,0,0,0,0,0,0,0,0,0,0,
0,0,-2047,-24,63,-4,-17,9,199,0,0,0,0,0,0,0,0,0,0,0,
0,0,-2056,-34,69,-2,-18,5,182,0,0,0,0,0,0,0,0,0,0,0,
0,0,-2049,-21,59,-5,-21,9,190,0,0,0,0,0,0,0,0,0,0,0,
0,0,-2047,-28,69,-7,-20,3,189,0,0,0,0,0,0,0,0,0,0,0,
0,0,-2046,-19,72,-6,-16,9,213,0,0,0,0,0,0,0,0,0,0,0,
0,0,-2042,-25,63,-8,-18,6,195,0,0,0,0,0,0,0,0,0,0,0,
0,0,-2052,-30,62,-7,-21,8,178,0,0,0,0,0,0,0,0,0,0,0,
0,0,-2050,-25,65,-7,-21,8,188,0,0,0,0,0,0,0,0,0,0,0,
0,0,-2050,-25,65,-7,-17,7,191,0,0,0,0,0,0,0,0,0,0,0,
0,0,-2045,-26,58,-7,-16,8,191,0,0,0,0,0,0,0,0,0,0,0,
0,0,-2042,-24,66,-8,-18,8,201,0,0,0,0,0,0,0,0,0,0,0,
0,0,-2045,-24,69,-3,-18,6,204,0,0,0,0,0,0,0,0,0,0,0,
0,0,-2045,-24,69,-7,-17,4,199,0,0,0,0,0,0,0,0,0,0,0,
0,0,-2054,-22,71,-5,-20,6,194,0,0,0,0,0,0,0,0,0,0,0,
0,0,-2050,-22,62,-5,-19,8,192,0,0,0,0,0,0,0,0,0,0,0,
0,0,-2050,-28,60,-10,-20,7,177,0,0,0,0,0,0,0,0,0,0,0,
0,0,-2050,-28,60,-5,-21,3,177,0,0,0,0,0,0,0,0,0,0,0,
0,0,-2049,-27,57,-6,-14,5,184,0,0,0,0,0,0,0,0,0,0,0,
0,0,-2043,-25,63,-4,-18,7,199,0,0,0,0,0,0,0,0,0,0,0,
0,0,-2044,-18,70,-8,-19,2,202,0,0,0,0,0,0,0,0,0,0,0,
0,0,-2049,-25,61,-5,-17,7,190,0,0,0,0,0,0,0,0,0,0,0,
0,0,-2048,-25,66,-7,-20,7,192,0,0,0,0,0,0,0,0,0,0,0,
0,0,-2054,-21,66,-4,-17,8,196,0,0,0,0,0,0,0,0,0,0,0,
0,0,-2049,-26,64,-6,-18,8,191,0,0,0,0,0,0,0,0,0,0,0,
0,0,-2051,-27,64,-10,-20,7,181,0,0,0,0,0,0,0,0,0,0,0,
0,0,-2047,-31,65,-4,-19,6,189,0,0,0,0,0,0,0,0,0,0,0,
0,0,-2048,-30,65,-6,-18,8,190,0,0,0,0,0,0,0,0,0,0,0,
0,0,-2053,-27,74,-9,-20,7,190,0,0,0,0,0,0,0,0,0,0,0,
0,0,-2049,-26,60,-5,-20,5,183,0,0,0,0,0,0,0,0,0,0,0,
0,0,-2042,-21,68,-2,-16,8,214,0,0,0,0,0,0,0,0,0,0,0,
0,0,-2045,-31,68,-8,-17,6,192,0,0,0,0,0,0,0,0,0,0,0,
0,0,-2052,-22,60,-9,-18,4,181,0,0,0,0,0,0,0,0,0,0,0,
0,0,-2049,-22,64,-7,-14,8,198,0,0,0,0,0,0,0,0,0,0,0,
0,0,-2047,-24,66,-4,-18,8,200,0,0,0,0,0,0,0,0,0,0,0,
0,0,-2048,-18,69,-7,-17,2,200,0,0,0,0,0,0,0,0,0,0,0,
0,0,-2048,-17,64,-8,-17,5,198,0,0,0,0,0,0,0,0,0,0,0,
0,0,-2045,-26,66,-3,-17,5,199,0,0,0,0,0,0,0,0,0,0,0,
0,0,-2049,-23,59,-5,-19,4,185,0,0,0,0,0,0,0,0,0,0,0,
0,0,-2049,-28,70,-5,-18,5,193,0,0,0,0,0,0,0,0,0,0,0,
0,0,-2050,-30,66,-5,-17,4,186,0,0,0,0,0,0,0,0,0,0,0,
0,0,-2049,-24,70,-8,-17,5,195,0,0,0,0,0,0,0,0,0,0,0,
0,0,-2046,-23,71,-7,-16,8,206,0,0,0,0,0,0,0,0,0,0,0,
0,0,-2051,-24,66,-1,-18,8,198,0,0,0,0,0,0,0,0,0,0,0,
0,0,-2047,-21,68,-8,-19,4,196,0,0,0,0,0,0,0,0,0,0,0,
0,0,-2050,-20,69,-7,-19,12,203,0,0,0,0,0,0,0,0,0,0,0,
0,0,-2051,-26,61,-6,-17,2,181,0,0,0,0,0,0,0,0,0,0,0,
0,0,-2049,-25,67,-8,-18,6,191,0,0,0,0,0,0,0,0,0,0,0,
0,0,-2048,-25,65,-8,-16,5,192,0,0,0,0,0,0,0,0,0,0,0,
0,0,-2044,-20,66,-6,-18,8,205,0,0,0,0,0,0,0,0,0,0,0,
0,0,-2047,-17,62,-9,-16,9,201,0,0,0,0,0,0,0,0,0,0,0,
0,0,-2046,-30,57,-6,-19,6,181,0,0,0,0,0,0,0,0,0,0,0,
0,0,-2050,-17,71,-6,-18,6,204,0,0,0,0,0,0,0,0,0,0,0,
0,0,-2045,-29,68,-8,-18,4,191,0,0,0,0,0,0,0,0,0,0,0,
0,0,-2041,-20,67,-8,-17,2,202,0,0,0,0,0,0,0,0,0,0,0,
0,0,-2047,-25,63,-5,-22,6,189,0,0,0,0,0,0,0,0,0,0,0,
0,0,-2045,-30,70,-7,-18,8,197,0,0,0,0,0,0,0,0,0,0,0,
0,0,-2039,-23,69,-8,-19,7,206,0,0,0,0,0,0,0,0,0,0,0,
0,0,-2047,-29,65,-6,-18,4,188,0,0,0,0,0,0,0,0,0,0,0,
0,0,-2047,-30,65,-10,-20,5,182,0,0,0,0,0,0,0,0,0,0,0,
0,0,-2051,-23,67,-7,-15,7,196,0,0,0,0,0,0,0,0,0,0,0,
0,0,-2043,-20,64,-6,-20,7,201,0,0,0,0,0,0,0,0,0,0,0,
0,0,-2049,-22,59,-7,-17,3,185,0,0,0,0,0,0,0,0,0,0,0,
0,0,-2047,-27,60,-1,-21,8,191,0,0,0,0,0,0,0,0,0,0,0,
0,0,-2052,-25,68,-6,-17,7,193,0,0,0,0,0,0,0,0,0,0,0,
0,0,-2045,-27,64,-5,-19,8,195,0,0,0,0,0,0,0,0,0,0,0,
0,0,-2053,-23,67,-5,-19,10,195,0,0,0,0,0,0,0,0,0,0,0,
0,0,-2047,-29,73,-3,-17,4,200,0,0,0,0,0,0,0,0,0,0,0,
0,0,-2049,-24,65,-6,-18,5,191,0,0,0,0,0,0,0,0,0,0,0,
0,0,-2049,-28,64,-8,-19,3,181,0,0,0,0,0,0,0,0,0,0,0,
0,0,-2046,-28,67,-7,-20,7,192,0,0,0,0,0,0,0,0,0,0,0,
0,0,-2045,-23,62,-6,-20,6,193,0,0,0,0,0,0,0,0,0,0,0,
0,0,-2041,-23,64,-7,-15,6,203,0,0,0,0,0,0,0,0,0,0,0,
0,0,-2045,-26,69,-8,-16,6,199,0,0,0,0,0,0,0,0,0,0,0,
0,0,-2052,-24,63,-9,-19,6,183,0,0,0,0,0,0,0,0,0,0,0,
0,0,-2048,-22,64,-7,-21,5,190,0,0,0,0,0,0,0,0,0,0,0,
0,0,-2052,-29,68,-8,-20,1,178,0,0,0,0,0,0,0,0,0,0,0,
0,0,-2044,-19,65,-5,-18,7,205,0,0,0,0,0,0,0,0,0,0,0,
0,0,-2045,-27,69,-8,-19,6,195,0,0,0,0,0,0,0,0,0,0,0,
0,0,-2044,-25,66,-9,-19,6,194,0,0,0,0,0,0,0,0,0,0,0,
0,0,-2046,-17,67,-7,-19,6,203,0,0,0,0,0,0,0,0,0,0,0,
0,0,-2043,-30,66,-5,-17,7,197,0,0,0,0,0,0,0,0,0,0,0,
0,0,-2051,-24,73,-8,-14,4,198,0,0,0,0,0,0,0,0,0,0,0,
0,0,-2051,-21,69,-6,-20,5,194,0,0,0,0,0,0,0,0,0,0,0,
0,0,-2050,-26,73,-5,-17,4,197,0,0,0,0,0,0,0,0,0,0,0,
0,0,-2044,-23,63,-6,-19,5,195,0,0,0,0,0,0,0,0,0,0,0,
0,0,-2047,-23,68,-5,-18,5,199,0,0,0,0,0,0,0,0,0,0,0,
0,0,-2041,-21,62,-5,-18,4,200,0,0,0,0,0,0,0,0,0,0,0,
0,0,-2042,-19,69,-10,-17,6,206,0,0,0,0,0,0,0,0,0,0,0,
0,0,-2051,-27,76,-9,-20,3,190,0,0,0,0,0,0,0,0,0,0,0,
0,0,-2045,-25,58,-3,-15,7,196,0,0,0,0,0,0,0,0,0,0,0,
0,0,-2049,-28,70,-5,-20,8,194,0,0,0,0,0,0,0,0,0,0,0,
0,0,-2042,-24,67,-6,-17,5,202,0,0,0,0,0,0,0,0,0,0,0,
0,0,-2054,-25,66,-5,-21,7,186,0,0,0,0,0,0,0,0,0,0,0,
0,0,-2052,-25,65,-6,-18,8,190,0,0,0,0,0,0,0,0,0,0,0,
0,0,-2042,-25,65,-4,-19,6,200,0,0,0,0,0,0,0,0,0,0,0,
0,0,-2046,-19,58,-7,-19,6,192,0,0,0,0,0,0,0,0,0,0,0,
0,0,-2042,-32,66,-7,-19,6,191,0,0,0,0,0,0,0,0,0,0,0,
0,0,-2051,-27,66,-4,-17,8,193,0,0,0,0,0,0,0,0,0,0,0,
0,0,-2042,-35,72,-5,-19,5,195,0,0,0,0,0,0,0,0,0,0,0,
0,0,-2048,-23,67,-6,-19,2,192,0,0,0,0,0,0,0,0,0,0,0,
0,0,-2052,-21,67,-6,-16,4,194,0,0,0,0,0,0,0,0,0,0,0,
0,0,-2047,-19,65,-10,-17,6,197,0,0,0,0,0,0,0,0,0,0,0,
0,0,-2045,-23,63,-5,-17,6,198,0,0,0,0,0,0,0,0,0,0,0,
0,0,-2049,-21,70,-7,-19,8,200,0,0,0,0,0,0,0,0,0,0,0,
0,0,-2046,-27,60,-6,-17,5,188,0,0,0,0,0,0,0,0,0,0,0,
0,0,-2049,-23,63,-6,-17,5,191,0,0,0,0,0,0,0,0,0,0,0,
0,0,-2048,-23,67,-4,-18,5,198,0,0,0,0,0,0,0,0,0,0,0,
0,0,-2043,-22,62,-6,-19,9,200,0,0,0,0,0,0,0,0,0,0,0,
0,0,-2046,-24,60,-9,-18,5,187,0,0,0,0,0,0,0,0,0,0,0,
0,0,-2049,-21,66,-8,-21,4,189,0,0,0,0,0,0,0,0,0,0,0,
0,0,-2046,-20,66,-8,-16,8,203,0,0,0,0,0,0,0,0,0,0,0,
0,0,-2049,-20,59,-8,-18,4,186,0,0,0,0,0,0,0,0,0,0,0,
0,0,-2051,-23,64,-7,-19,6,188,0,0,0,0,0,0,0,0,0,0,0,
0,0,-2055,-21,65,-4,-18,7,192,0,0,0,0,0,0,0,0,0,0,0,
0,0,-2048,-30,67,-6,-19,4,187,0,0,0,0,0,0,0,0,0,0,0,
0,0,-2050,-25,59,-4,-17,5,186,0,0,0,0,0,0,0,0,0,0,0,
0,0,-2050,-25,59,-4,-17,5,186,0,0,0,0,0,0,0,0,0,0,0,
0,0,-2046,-30,70,-8,-16,2,191,0,0,0,0,0,0,0,0,0,0,0,
0,0,-2049,-21,69,-1,-18,5,203,0,0,0,0,0,0,0,0,0,0,0,
0,0,-2053,-21,67,-2,-16,7,200,0,0,0,0,0,0,0,0,0,0,0,
0,0,-2047,-20,64,-2,-16,7,205,0,0,0,0,0,0,0,0,0,0,0,
0,0,-2047,-20,64,-8,-19,4,193,0,0,0,0,0,0,0,0,0,0,0,
0,0,-2055,-20,66,-6,-21,6,188,0,0,0,0,0,0,0,0,0,0,0,
0,0,-2044,-19,68,-4,-16,7,211,0,0,0,0,0,0,0,0,0,0,0,
0,0,-2048,-25,68,-5,-19,8,198,0,0,0,0,0,0,0,0,0,0,0,
0,0,-2048,-25,68,-11,-16,4,191,0,0,0,0,0,0,0,0,0,0,0,
0,0,-2049,-28,72,-7,-18,4,192,0,0,0,0,0,0,0,0,0,0,0,
0,0,-2048,-22,66,-4,-19,6,198,0,0,0,0,0,0,0,0,0,0,0,
0,0,-2047,-26,70,-7,-20,9,198,0,0,0,0,0,0,0,0,0,0,0,
0,0,-2042,-26,62,-4,-15,6,200,0,0,0,0,0,0,0,0,0,0,0,
0,0,-2046,-22,66,-7,-17,5,198,0,0,0,0,0,0,0,0,0,0,0,
0,0,-2044,-32,65,-8,-15,8,193,0,0,0,0,0,0,0,0,0,0,0,
0,0,-2047,-24,74,-6,-16,9,209,0,0,0,0,0,0,0,0,0,0,0,
0,0,-2047,-25,67,-6,-17,6,197,0,0,0,0,0,0,0,0,0,0,0,
0,0,-2048,-27,63,-6,-20,6,187,0,0,0,0,0,0,0,0,0,0,0,
0,0,-2050,-22,67,-7,-18,8,196,0,0,0,0,0,0,0,0,0,0,0,
0,0,-2048,-19,64,-3,-16,7,204,0,0,0,0,0,0,0,0,0,0,0,
0,0,-2050,-32,68,-9,-16,8,187,0,0,0,0,0,0,0,0,0,0,0,
0,0,-2056,-27,64,-5,-16,2,180,0,0,0,0,0,0,0,0,0,0,0,
0,0,-2045,-25,63,-4,-18,9,199,0,0,0,0,0,0,0,0,0,0,0,
0,0,-2053,-28,70,-4,-18,8,193,0,0,0,0,0,0,0,0,0,0,0,
0,0,-2048,-22,73,-8,-19,5,200,0,0,0,0,0,0,0,0,0,0,0,
0,0,-2052,-28,66,-5,-18,6,187,0,0,0,0,0,0,0,0,0,0,0,
0,0,-2045,-26,67,-5,-18,9,201,0,0,0,0,0,0,0,0,0,0,0,
0,0,-2048,-19,64,-4,-17,8,203,0,0,0,0,0,0,0,0,0,0,0,
0,0,-2049,-25,70,-8,-19,4,191,0,0,0,0,0,0,0,0,0,0,0,
0,0,-2051,-30,65,-8,-19,4,179,0,0,0,0,0,0,0,0,0,0,0,
0,0,-2051,-30,64,-8,-18,6,181,0,0,0,0,0,0,0,0,0,0,0,
0,0,-2048,-24,66,-4,-15,6,200,0,0,0,0,0,0,0,0,0,0,0,
0,0,-2047,-26,61,-7,-19,3,184,0,0,0,0,0,0,0,0,0,0,0,
0,0,-2045,-26,68,-6,-18,7,199,0,0,0,0,0,0,0,0,0,0,0,
0,0,-2052,-24,70,-5,-17,8,198,0,0,0,0,0,0,0,0,0,0,0,
0,0,-2052,-22,68,-8,-19,6,191,0,0,0,0,0,0,0,0,0,0,0,
0,0,-2052,-27,71,-8,-18,4,188,0,0,0,0,0,0,0,0,0,0,0,
0,0,-2047,-24,66,-3,-18,4,197,0,0,0,0,0,0,0,0,0,0,0,
0,0,-2045,-28,63,-9,-20,9,189,0,0,0,0,0,0,0,0,0,0,0,
0,0,-2052,-25,63,-3,-18,4,187,0,0,0,0,0,0,0,0,0,0,0,
0,0,-2043,-27,67,-6,-17,6,199,0,0,0,0,0,0,0,0,0,0,0,
0,0,-2044,-23,68,-9,-18,4,197,0,0,0,0,0,0,0,0,0,0,0,
0,0,-2050,-23,65,-5,-18,7,194,0,0,0,0,0,0,0,0,0,0,0,
0,0,-2053,-28,66,-6,-19,7,185,0,0,0,0,0,0,0,0,0,0,0,
0,0,-2044,-23,66,-7,-16,8,203,0,0,0,0,0,0,0,0,0,0,0,
0,0,-2050,-24,64,-7,-17,3,187,0,0,0,0,0,0,0,0,0,0,0,
0,0,-2045,-26,62,-6,-19,4,189,0,0,0,0,0,0,0,0,0,0,0,
0,0,-2048,-31,70,-8,-20,1,183,0,0,0,0,0,0,0,0,0,0,0,
0,0,-2048,-25,62,-3,-15,5,195,0,0,0,0,0,0,0,0,0,0,0,
0,0,-2054,-26,66,-7,-18,7,186,0,0,0,0,0,0,0,0,0,0,0,
0,0,-2045,-23,71,-5,-19,6,204,0,0,0,0,0,0,0,0,0,0,0,
0,0,-2044,-22,62,-6,-16,3,196,0,0,0,0,0,0,0,0,0,0,0,
0,0,-2053,-24,64,-7,-19,4,183,0,0,0,0,0,0,0,0,0,0,0,
0,0,-2051,-26,62,-4,-17,5,187,0,0,0,0,0,0,0,0,0,0,0,
0,0,-2047,-25,62,-4,-17,7,195,0,0,0,0,0,0,0,0,0,0,0,
0,0,-2052,-23,69,-6,-19,6,193,0,0,0,0,0,0,0,0,0,0,0,
0,0,-2046,-27,68,-5,-19,2,192,0,0,0,0,0,0,0,0,0,0,0,
0,0,-2042,-21,66,-6,-18,9,207,0,0,0,0,0,0,0,0,0,0,0,
0,0,-2056,-24,64,-5,-18,11,190,0,0,0,0,0,0,0,0,0,0,0,
0,0,-2047,-27,68,-9,-17,4,191,0,0,0,0,0,0,0,0,0,0,0,
0,0,-2045,-24,68,-4,-20,5,199,0,0,0,0,0,0,0,0,0,0,0,
0,0,-2044,-30,72,-5,-17,7,202,0,0,0,0,0,0,0,0,0,0,0,
0,0,-2047,-31,61,-6,-19,7,184,0,0,0,0,0,0,0,0,0,0,0,
0,0,-2051,-22,66,-7,-16,5,193,0,0,0,0,0,0,0,0,0,0,0,
0,0,-2050,-23,65,-1,-19,8,198,0,0,0,0,0,0,0,0,0,0,0,
0,0,-2049,-26,59,-9,-16,4,181,0,0,0,0,0,0,0,0,0,0,0,
0,0,-2045,-29,69,-5,-19,7,197,0,0,0,0,0,0,0,0,0,0,0,
0,0,-2053,-24,72,-7,-17,5,194,0,0,0,0,0,0,0,0,0,0,0,
0,0,-2046,-24,63,-8,-17,5,192,0,0,0,0,0,0,0,0,0,0,0,
0,0,-2051,-27,65,-5,-16,6,190,0,0,0,0,0,0,0,0,0,0,0,
0,0,-2050,-24,67,-8,-22,6,187,0,0,0,0,0,0,0,0,0,0,0,
0,0,-2048,-26,65,-7,-19,3,187,0,0,0,0,0,0,0,0,0,0,0,
0,0,-2049,-29,59,-4,-17,6,184,0,0,0,0,0,0,0,0,0,0,0,
0,0,-2049,-21,66,-8,-17,9,198,0,0,0,0,0,0,0,0,0,0,0,
0,0,-2050,-21,62,-8,-19,10,192,0,0,0,0,0,0,0,0,0,0,0,
0,0,-2053,-31,67,-7,-21,6,179,0,0,0,0,0,0,0,0,0,0,0,
0,0,-2043,-30,71,-7,-21,5,194,0,0,0,0,0,0,0,0,0,0,0,
0,0,-2048,-29,62,-9,-20,6,181,0,0,0,0,0,0,0,0,0,0,0,
0,0,-2054,-25,64,-5,-17,7,188,0,0,0,0,0,0,0,0,0,0,0,
0,0,-2054,-29,64,-5,-18,5,181,0,0,0,0,0,0,0,0,0,0,0,
0,0,-2047,-23,68,-2,-18,7,204,0,0,0,0,0,0,0,0,0,0,0,
0,0,-2053,-23,65,-5,-17,8,193,0,0,0,0,0,0,0,0,0,0,0,
0,0,-2046,-24,67,-4,-20,6,198,0,0,0,0,0,0,0,0,0,0,0,
0,0,-2052,-26,65,-6,-18,5,186,0,0,0,0,0,0,0,0,0,0,0,
0,0,-2052,-28,66,-7,-18,6,185,0,0,0,0,0,0,0,0,0,0,0,
0,0,-2053,-24,64,-3,-20,7,189,0,0,0,0,0,0,0,0,0,0,0,
0,0,-2046,-33,71,-4,-19,6,194,0,0,0,0,0,0,0,0,0,0,0,
0,0,-2050,-28,66,-10,-20,6,182,0,0,0,0,0,0,0,0,0,0,0,
0,0,-2048,-34,68,-2,-19,7,191,0,0,0,0,0,0,0,0,0,0,0,
0,0,-2050,-27,70,-10,-18,5,188,0,0,0,0,0,0,0,0,0,0,0,
0,0,-2049,-21,72,-5,-18,8,205,0,0,0,0,0,0,0,0,0,0,0,
0,0,-2045,-34,67,-8,-17,7,189,0,0,0,0,0,0,0,0,0,0,0,
0,0,-2048,-25,66,-8,-19,5,190,0,0,0,0,0,0,0,0,0,0,0,
0,0,-2051,-27,66,-4,-18,9,193,0,0,0,0,0,0,0,0,0,0,0,
0,0,-2042,-24,69,-6,-19,5,202,0,0,0,0,0,0,0,0,0,0,0,
0,0,-2051,-22,64,-6,-17,5,191,0,0,0,0,0,0,0,0,0,0,0,
0,0,-2047,-28,67,-3,-18,4,194,0,0,0,0,0,0,0,0,0,0,0,
0,0,-2050,-25,64,-6,-17,8,192,0,0,0,0,0,0,0,0,0,0,0,
0,0,-2051,-27,71,-7,-18,8,194,0,0,0,0,0,0,0,0,0,0,0,
0,0,-2052,-21,68,-5,-20,5,193,0,0,0,0,0,0,0,0,0,0,0,
0,0,-2050,-20,75,-6,-18,3,202,0,0,0,0,0,0,0,0,0,0,0,
0,0,-2052,-28,66,-7,-21,5,181,0,0,0,0,0,0,0,0,0,0,0,
0,0,-2045,-31,68,-9,-22,4,184,0,0,0,0,0,0,0,0,0,0,0,
0,0,-2048,-27,69,-7,-17,8,197,0,0,0,0,0,0,0,0,0,0,0,
0,0,-2047,-31,68,-5,-18,3,189,0,0,0,0,0,0,0,0,0,0,0,
0,0,-2049,-20,65,-6,-19,4,193,0,0,0,0,0,0,0,0,0,0,0,
0,0,-2043,-24,65,-6,-18,6,199,0,0,0,0,0,0,0,0,0,0,0,
0,0,-2044,-28,73,-3,-18,7,206,0,0,0,0,0,0,0,0,0,0,0,
0,0,-2051,-22,66,-6,-16,4,193,0,0,0,0,0,0,0,0,0,0,0,
0,0,-2051,-22,66,-6,-16,4,193,0,0,0,0,0,0,0,0,0,0,0,
0,0,-2045,-20,64,-8,-19,7,198,0,0,0,0,0,0,0,0,0,0,0,
0,0,-2043,-23,59,-4,-19,8,197,0,0,0,0,0,0,0,0,0,0,0,
0,0,-2048,-24,66,-3,-18,10,202,0,0,0,0,0,0,0,0,0,0,0,
0,0,-2048,-24,66,-3,-18,10,202,0,0,0,0,0,0,0,0,0,0,0,
0,0,-2053,-28,68,-5,-20,6,186,0,0,0,0,0,0,0,0,0,0,0,
0,0,-2047,-24,61,-8,-17,5,189,0,0,0,0,0,0,0,0,0,0,0,
0,0,-2048,-22,64,-5,-19,7,196,0,0,0,0,0,0,0,0,0,0,0,
0,0,-2046,-30,61,-9,-17,8,186,0,0,0,0,0,0,0,0,0,0,0,
0,0,-2046,-30,61,-6,-17,5,186,0,0,0,0,0,0,0,0,0,0,0,
0,0,-2048,-31,66,-7,-17,5,187,0,0,0,0,0,0,0,0,0,0,0,
0,0,-2044,-28,67,-7,-19,4,192,0,0,0,0,0,0,0,0,0,0,0,
0,0,-2049,-27,66,-8,-18,9,191,0,0,0,0,0,0,0,0,0,0,0,
0,0,-2052,-30,70,-8,-15,6,189,0,0,0,0,0,0,0,0,0,0,0,
0,0,-2051,-19,58,-5,-18,5,188,0,0,0,0,0,0,0,0,0,0,0,
0,0,-2051,-26,60,-5,-16,4,184,0,0,0,0,0,0,0,0,0,0,0,
0,0,-2036,-22,68,-8,-19,5,207,0,0,0,0,0,0,0,0,0,0,0,
0,0,-2049,-22,64,-5,-18,5,193,0,0,0,0,0,0,0,0,0,0,0,
0,0,-2049,-22,64,-9,-16,8,194,0,0,0,0,0,0,0,0,0,0,0,
0,0,-2045,-19,67,-8,-17,3,200,0,0,0,0,0,0,0,0,0,0,0,
0,0,-2044,-28,69,-7,-17,6,198,0,0,0,0,0,0,0,0,0,0,0,
0,0,-2046,-25,67,-6,-17,4,196,0,0,0,0,0,0,0,0,0,0,0,
0,0,-2050,-20,71,-8,-19,3,195,0,0,0,0,0,0,0,0,0,0,0,
0,0,-2051,-24,66,-7,-17,8,193,0,0,0,0,0,0,0,0,0,0,0,
0,0,-2047,-18,68,-6,-17,7,206,0,0,0,0,0,0,0,0,0,0,0,
0,0,-2046,-24,70,-1,-19,5,204,0,0,0,0,0,0,0,0,0,0,0,
0,0,-2048,-19,64,-7,-18,6,197,0,0,0,0,0,0,0,0,0,0,0,
0,0,-2045,-24,68,-7,-21,6,196,0,0,0,0,0,0,0,0,0,0,0,
0,0,-2049,-26,62,-8,-21,6,182,0,0,0,0,0,0,0,0,0,0,0,
0,0,-2047,-24,65,-7,-19,5,192,0,0,0,0,0,0,0,0,0,0,0,
0,0,-2044,-21,65,-10,-20,4,193,0,0,0,0,0,0,0,0,0,0,0,
0,0,-2046,-33,64,-8,-15,3,184,0,0,0,0,0,0,0,0,0,0,0,
0,0,-2050,-24,68,-10,-19,7,190,0,0,0,0,0,0,0,0,0,0,0,
0,0,-2043,-26,72,-6,-16,6,206,0,0,0,0,0,0,0,0,0,0,0,
0,0,-2043,-21,65,-8,-19,6,199,0,0,0,0,0,0,0,0,0,0,0,
0,0,-2045,-25,69,-7,-19,8,200,0,0,0,0,0,0,0,0,0,0,0,
0,0,-2043,-31,68,-8,-19,3,189,0,0,0,0,0,0,0,0,0,0,0,
0,0,-2046,-21,57,-8,-20,5,186,0,0,0,0,0,0,0,0,0,0,0,
0,0,-2050,-28,67,-4,-17,6,192,0,0,0,0,0,0,0,0,0,0,0,
0,0,-2053,-28,68,-3,-17,6,191,0,0,0,0,0,0,0,0,0,0,0,
0,0,-2047,-24,62,-4,-19,6,193,0,0,0,0,0,0,0,0,0,0,0,
0,0,-2040,-22,70,-8,-19,5,205,0,0,0,0,0,0,0,0,0,0,0,
0,0,-2047,-24,64,-4,-19,6,195,0,0,0,0,0,0,0,0,0,0,0,
0,0,-2052,-28,68,-7,-18,6,187,0,0,0,0,0,0,0,0,0,0,0,
0,0,-2048,-25,68,-9,-18,4,191,0,0,0,0,0,0,0,0,0,0,0,
0,0,-2054,-25,62,-7,-18,5,181,0,0,0,0,0,0,0,0,0,0,0,
0,0,-2055,-27,60,-6,-23,4,171,0,0,0,0,0,0,0,0,0,0,0,
0,0,-2045,-18,67,-8,-18,7,204,0,0,0,0,0,0,0,0,0,0,0,
0,0,-2046,-26,55,-7,-18,5,182,0,0,0,0,0,0,0,0,0,0,0,
0,0,-2044,-19,75,-4,-16,3,214,0,0,0,0,0,0,0,0,0,0,0,
0,0,-2046,-22,65,-7,-20,6,195,0,0,0,0,0,0,0,0,0,0,0,
0,0,-2048,-20,69,-5,-18,7,204,0,0,0,0,0,0,0,0,0,0,0,
0,0,-2047,-31,69,-6,-18,7,193,0,0,0,0,0,0,0,0,0,0,0,
0,0,-2048,-30,62,-4,-18,6,187,0,0,0,0,0,0,0,0,0,0,0,
0,0,-2046,-27,69,-4,-20,7,198,0,0,0,0,0,0,0,0,0,0,0,
0,0,-2048,-19,64,-8,-19,3,192,0,0,0,0,0,0,0,0,0,0,0,
0,0,-2043,-22,68,-8,-18,5,201,0,0,0,0,0,0,0,0,0,0,0,
0,0,-2047,-26,59,-6,-18,4,185,0,0,0,0,0,0,0,0,0,0,0,
0,0,-2043,-28,68,-7,-17,7,199,0,0,0,0,0,0,0,0,0,0,0,
0,0,-2044,-21,64,-4,-16,5,203,0,0,0,0,0,0,0,0,0,0,0,
0,0,-2046,-22,71,-6,-17,7,206,0,0,0,0,0,0,0,0,0,0,0,
0,0,-2047,-23,68,-4,-18,6,201,0,0,0,0,0,0,0,0,0,0,0,
0,0,-2049,-25,67,-5,-15,3,194,0,0,0,0,0,0,0,0,0,0,0,
0,0,-2048,-21,68,-5,-16,5,202,0,0,0,0,0,0,0,0,0,0,0,
0,0,-2043,-22,62,-5,-16,8,203,0,0,0,0,0,0,0,0,0,0,0,
0,0,-2044,-23,70,-10,-19,5,198,0,0,0,0,0,0,0,0,0,0,0,
0,0,-2049,-20,66,-6,-16,7,200,0,0,0,0,0,0,0,0,0,0,0,
0,0,-2046,-22,67,-6,-18,8,202,0,0,0,0,0,0,0,0,0,0,0,
0,0,-2045,-20,63,-6,-15,6,202,0,0,0,0,0,0,0,0,0,0,0,
0,0,-2048,-29,67,-7,-18,5,189,0,0,0,0,0,0,0,0,0,0,0,
0,0,-2048,-25,63,-8,-20,5,186,0,0,0,0,0,0,0,0,0,0,0,
0,0,-2048,-24,59,-4,-19,6,189,0,0,0,0,0,0,0,0,0,0,0,
0,0,-2049,-23,71,-8,-16,4,197,0,0,0,0,0,0,0,0,0,0,0,
0,0,-2050,-29,61,-7,-18,2,177,0,0,0,0,0,0,0,0,0,0,0,
0,0,-2047,-25,72,-9,-17,6,199,0,0,0,0,0,0,0,0,0,0,0,
0,0,-2049,-22,64,-4,-20,4,191,0,0,0,0,0,0,0,0,0,0,0,
0,0,-2054,-33,63,-6,-19,9,178,0,0,0,0,0,0,0,0,0,0,0,
0,0,-2049,-22,74,-7,-17,8,205,0,0,0,0,0,0,0,0,0,0,0,
0,0,-2049,-30,57,-4,-19,5,178,0,0,0,0,0,0,0,0,0,0,0,
0,0,-2042,-28,70,-6,-17,7,203,0,0,0,0,0,0,0,0,0,0,0,
0,0,-2049,-30,61,-6,-18,5,181,0,0,0,0,0,0,0,0,0,0,0,
0,0,-2056,-21,62,-5,-22,4,180,0,0,0,0,0,0,0,0,0,0,0,
0,0,-2046,-19,68,-6,-17,6,205,0,0,0,0,0,0,0,0,0,0,0,
0,0,-2046,-25,61,-4,-18,8,195,0,0,0,0,0,0,0,0,0,0,0,
0,0,-2041,-26,58,-9,-15,5,191,0,0,0,0,0,0,0,0,0,0,0,
0,0,-2052,-19,73,-3,-18,6,205,0,0,0,0,0,0,0,0,0,0,0,
0,0,-2050,-19,69,-6,-18,3,197,0,0,0,0,0,0,0,0,0,0,0,
0,0,-2049,-23,70,-5,-18,8,201,0,0,0,0,0,0,0,0,0,0,0,
0,0,-2048,-27,64,-7,-19,4,186,0,0,0,0,0,0,0,0,0,0,0,
0,0,-2051,-22,62,-7,-17,8,191,0,0,0,0,0,0,0,0,0,0,0,
0,0,-2047,-24,65,-8,-19,9,195,0,0,0,0,0,0,0,0,0,0,0,
0,0,-2043,-32,69,-6,-19,4,192,0,0,0,0,0,0,0,0,0,0,0,
0,0,-2047,-23,68,-3,-18,5,201,0,0,0,0,0,0,0,0,0,0,0,
0,0,-2043,-23,65,-6,-18,6,200,0,0,0,0,0,0,0,0,0,0,0,
0,0,-2046,-25,60,-4,-17,5,192,0,0,0,0,0,0,0,0,0,0,0,
0,0,-2051,-29,62,-5,-21,5,179,0,0,0,0,0,0,0,0,0,0,0,
0,0,-2049,-21,71,-6,-18,9,204,0,0,0,0,0,0,0,0,0,0,0,
0,0,-2053,-24,58,-6,-19,4,178,0,0,0,0,0,0,0,0,0,0,0,
0,0,-2051,-28,71,-7,-18,8,193,0,0,0,0,0,0,0,0,0,0,0,
