1,2,3,4,5,6,7,8,9,10,11,12,13,14,15,16,17,18,19,20,
UserData_20,Frame ID£º0x01,FC_ACC_X,FC_ACC_Y,FC_ACC_Z,FC_GYR_X,FC_GYR_Y,FC_GYR_Z,FC_STA_Shock,Frame ID£º0x02,FC_MAG_X,FC_MAG_Y,FC_MAG_Z,FC_ALT_BAR,FC_SenserTMP,FC_STA_BAR,FC_STA_MAG,Frame ID£º0x03,FC_ATT_ROL,FC_ATT_PIT,
0,0,2046,-99,-17,-6,-22,3,42,0,0,0,0,0,0,0,0,0,0,0,
0,0,2048,-99,-23,-5,-20,7,46,0,0,0,0,0,0,0,0,0,0,0,
0,0,2045,-96,-17,-6,-17,6,52,0,0,0,0,0,0,0,0,0,0,0,
0,0,2039,-101,-16,-6,-20,5,38,0,0,0,0,0,0,0,0,0,0,0,
0,0,2042,-93,-19,-5,-18,5,49,0,0,0,0,0,0,0,0,0,0,0,
0,0,2048,-101,-14,-6,-16,3,52,0,0,0,0,0,0,0,0,0,0,0,
0,0,2054,-97,-18,-8,-20,3,52,0,0,0,0,0,0,0,0,0,0,0,
0,0,2044,-96,-14,-6,-16,6,55,0,0,0,0,0,0,0,0,0,0,0,
0,0,2047,-101,-18,-7,-19,7,46,0,0,0,0,0,0,0,0,0,0,0,
0,0,2042,-98,-4,-7,-18,6,58,0,0,0,0,0,0,0,0,0,0,0,
0,0,2044,-99,-14,-5,-20,7,50,0,0,0,0,0,0,0,0,0,0,0,
0,0,2044,-101,-13,-7,-21,9,48,0,0,0,0,0,0,0,0,0,0,0,
0,0,2049,-101,-19,-8,-18,5,46,0,0,0,0,0,0,0,0,0,0,0,
0,0,2048,-96,-11,-8,-18,5,58,0,0,0,0,0,0,0,0,0,0,0,
0,0,2043,-100,-21,-6,-15,8,46,0,0,0,0,0,0,0,0,0,0,0,
0,0,2043,-97,-17,-10,-19,1,38,0,0,0,0,0,0,0,0,0,0,0,
0,0,2049,-107,-21,-5,-20,9,43,0,0,0,0,0,0,0,0,0,0,0,
0,0,2047,-99,-16,-7,-19,5,48,0,0,0,0,0,0,0,0,0,0,0,
0,0,2054,-95,-15,-5,-20,7,64,0,0,0,0,0,0,0,0,0,0,0,
0,0,2046,-97,-17,-5,-22,7,49,0,0,0,0,0,0,0,0,0,0,0,
0,0,2051,-102,-19,-6,-20,6,48,0,0,0,0,0,0,0,0,0,0,0,
0,0,2042,-94,-13,-9,-16,2,49,0,0,0,0,0,0,0,0,0,0,0,
0,0,2042,-101,-20,-6,-21,7,38,0,0,0,0,0,0,0,0,0,0,0,
0,0,2038,-96,-18,-7,-20,3,37,0,0,0,0,0,0,0,0,0,0,0,
0,0,2052,-97,-3,-12,-20,2,60,0,0,0,0,0,0,0,0,0,0,0,
0,0,2051,-99,-19,-7,-16,4,52,0,0,0,0,0,0,0,0,0,0,0,
0,0,2046,-97,-20,-6,-17,7,50,0,0,0,0,0,0,0,0,0,0,0,
0,0,2047,-100,-15,-10,-15,6,50,0,0,0,0,0,0,0,0,0,0,0,
0,0,2050,-97,-9,-7,-19,5,61,0,0,0,0,0,0,0,0,0,0,0,
0,0,2041,-97,-19,-7,-19,6,42,0,0,0,0,0,0,0,0,0,0,0,
0,0,2044,-101,-14,-7,-17,5,47,0,0,0,0,0,0,0,0,0,0,0,
0,0,2047,-102,-17,-4,-19,4,46,0,0,0,0,0,0,0,0,0,0,0,
0,0,2042,-103,-17,-5,-16,4,42,0,0,0,0,0,0,0,0,0,0,0,
0,0,2044,-91,-16,-9,-17,4,52,0,0,0,0,0,0,0,0,0,0,0,
0,0,2037,-107,-20,-6,-16,8,33,0,0,0,0,0,0,0,0,0,0,0,
0,0,2048,-101,-15,-6,-18,5,51,0,0,0,0,0,0,0,0,0,0,0,
0,0,2046,-102,-19,-6,-20,6,42,0,0,0,0,0,0,0,0,0,0,0,
0,0,2043,-97,-26,-6,-15,8,44,0,0,0,0,0,0,0,0,0,0,0,
0,0,2047,-96,-21,-7,-18,5,47,0,0,0,0,0,0,0,0,0,0,0,
0,0,2045,-93,-14,-6,-17,6,58,0,0,0,0,0,0,0,0,0,0,0,
0,0,2049,-105,-18,-6,-20,5,43,0,0,0,0,0,0,0,0,0,0,0,
0,0,2044,-101,-19,-9,-20,5,37,0,0,0,0,0,0,0,0,0,0,0,
0,0,2049,-100,-17,-6,-20,6,50,0,0,0,0,0,0,0,0,0,0,0,
0,0,2053,-109,-19,-9,-16,6,44,0,0,0,0,0,0,0,0,0,0,0,
0,0,2046,-105,-19,-6,-20,6,39,0,0,0,0,0,0,0,0,0,0,0,
0,0,2045,-97,-19,-9,-19,8,46,0,0,0,0,0,0,0,0,0,0,0,
0,0,2044,-94,-17,-7,-20,5,48,0,0,0,0,0,0,0,0,0,0,0,
0,0,2043,-105,-15,-8,-19,5,38,0,0,0,0,0,0,0,0,0,0,0,
0,0,2051,-100,-19,-4,-19,3,50,0,0,0,0,0,0,0,0,0,0,0,
0,0,2038,-96,-19,-5,-18,5,42,0,0,0,0,0,0,0,0,0,0,0,
0,0,2048,-94,-18,-3,-18,8,61,0,0,0,0,0,0,0,0,0,0,0,
0,0,2040,-97,-10,-8,-16,5,51,0,0,0,0,0,0,0,0,0,0,0,
0,0,2042,-99,-15,-5,-18,4,46,0,0,0,0,0,0,0,0,0,0,0,
0,0,2048,-100,-17,-4,-18,3,50,0,0,0,0,0,0,0,0,0,0,0,
0,0,2047,-98,-23,-6,-20,5,42,0,0,0,0,0,0,0,0,0,0,0,
0,0,2047,-97,-21,-8,-19,7,46,0,0,0,0,0,0,0,0,0,0,0,
0,0,2045,-89,-11,-4,-18,6,66,0,0,0,0,0,0,0,0,0,0,0,
0,0,2049,-102,-20,-9,-19,6,43,0,0,0,0,0,0,0,0,0,0,0,
0,0,2048,-96,-13,-4,-22,6,57,0,0,0,0,0,0,0,0,0,0,0,
0,0,2049,-99,-12,-4,-17,8,63,0,0,0,0,0,0,0,0,0,0,0,
0,0,2051,-99,-21,-6,-20,5,48,0,0,0,0,0,0,0,0,0,0,0,
0,0,2047,-96,-16,-5,-16,6,57,0,0,0,0,0,0,0,0,0,0,0,
0,0,2042,-99,-19,-7,-19,3,38,0,0,0,0,0,0,0,0,0,0,0,
0,0,2043,-102,-15,-5,-18,7,47,0,0,0,0,0,0,0,0,0,0,0,
0,0,2051,-89,-15,-7,-17,5,66,0,0,0,0,0,0,0,0,0,0,0,
0,0,2047,-104,-21,-5,-17,9,46,0,0,0,0,0,0,0,0,0,0,0,
0,0,2050,-102,-22,-7,-20,4,41,0,0,0,0,0,0,0,0,0,0,0,
0,0,2047,-97,-20,-6,-19,3,45,0,0,0,0,0,0,0,0,0,0,0,
0,0,2045,-97,-18,-5,-22,8,48,0,0,0,0,0,0,0,0,0,0,0,
0,0,2045,-101,-20,-7,-18,9,45,0,0,0,0,0,0,0,0,0,0,0,
0,0,2041,-101,-26,-6,-21,2,26,0,0,0,0,0,0,0,0,0,0,0,
0,0,2050,-101,-18,-8,-19,5,47,0,0,0,0,0,0,0,0,0,0,0,
0,0,2043,-97,-14,-6,-19,5,49,0,0,0,0,0,0,0,0,0,0,0,
0,0,2044,-102,-15,-7,-18,5,44,0,0,0,0,0,0,0,0,0,0,0,
0,0,2046,-101,-23,-6,-17,4,40,0,0,0,0,0,0,0,0,0,0,0,
0,0,2046,-97,-13,-7,-17,5,54,0,0,0,0,0,0,0,0,0,0,0,
0,0,2043,-102,-10,-8,-20,11,51,0,0,0,0,0,0,0,0,0,0,0,
0,0,2046,-98,-16,-7,-16,6,52,0,0,0,0,0,0,0,0,0,0,0,
0,0,2044,-96,-17,-8,-18,5,47,0,0,0,0,0,0,0,0,0,0,0,
0,0,2044,-101,-20,-7,-15,3,41,0,0,0,0,0,0,0,0,0,0,0,
0,0,2043,-93,-19,-4,-16,7,55,0,0,0,0,0,0,0,0,0,0,0,
0,0,2055,-97,-8,-9,-20,6,65,0,0,0,0,0,0,0,0,0,0,0,
0,0,2044,-103,-15,-8,-18,8,45,0,0,0,0,0,0,0,0,0,0,0,
0,0,2044,-99,-19,-5,-19,6,45,0,0,0,0,0,0,0,0,0,0,0,
0,0,2043,-102,-16,-6,-20,7,43,0,0,0,0,0,0,0,0,0,0,0,
0,0,2047,-98,-12,-7,-17,7,57,0,0,0,0,0,0,0,0,0,0,0,
0,0,2043,-101,-21,-9,-18,4,35,0,0,0,0,0,0,0,0,0,0,0,
0,0,2046,-99,-14,-8,-18,9,53,0,0,0,0,0,0,0,0,0,0,0,
0,0,2045,-96,-19,-6,-18,7,50,0,0,0,0,0,0,0,0,0,0,0,
0,0,2038,-97,-18,-10,-20,5,35,0,0,0,0,0,0,0,0,0,0,0,
0,0,2044,-102,-19,-5,-15,7,47,0,0,0,0,0,0,0,0,0,0,0,
0,0,2047,-103,-17,-2,-20,6,48,0,0,0,0,0,0,0,0,0,0,0,
0,0,2050,-100,-23,-7,-21,4,41,0,0,0,0,0,0,0,0,0,0,0,
0,0,2043,-99,-15,-4,-18,7,51,0,0,0,0,0,0,0,0,0,0,0,
0,0,2046,-97,-15,-7,-18,6,52,0,0,0,0,0,0,0,0,0,0,0,
0,0,2040,-98,-17,-7,-17,6,44,0,0,0,0,0,0,0,0,0,0,0,
0,0,2051,-97,-18,-6,-20,4,52,0,0,0,0,0,0,0,0,0,0,0,
0,0,2051,-97,-18,-6,-20,4,52,0,0,0,0,0,0,0,0,0,0,0,
0,0,2044,-113,-17,-8,-22,10,31,0,0,0,0,0,0,0,0,0,0,0,
0,0,2048,-98,-11,-7,-18,6,58,0,0,0,0,0,0,0,0,0,0,0,
0,0,2040,-103,-11,-5,-16,5,47,0,0,0,0,0,0,0,0,0,0,0,
0,0,2040,-103,-11,-5,-16,5,47,0,0,0,0,0,0,0,0,0,0,0,
0,0,2041,-99,-14,-4,-17,5,49,0,0,0,0,0,0,0,0,0,0,0,
0,0,2050,-95,-23,-9,-17,5,49,0,0,0,0,0,0,0,0,0,0,0,
0,0,2044,-104,-15,-6,-17,1,40,0,0,0,0,0,0,0,0,0,0,0,
0,0,2044,-104,-15,-9,-15,2,40,0,0,0,0,0,0,0,0,0,0,0,
0,0,2048,-102,-19,-9,-22,6,40,0,0,0,0,0,0,0,0,0,0,0,
0,0,2041,-103,-16,-7,-17,6,41,0,0,0,0,0,0,0,0,0,0,0,
0,0,2049,-99,-19,-9,-20,5,45,0,0,0,0,0,0,0,0,0,0,0,
0,0,2041,-102,-17,-9,-18,7,39,0,0,0,0,0,0,0,0,0,0,0,
0,0,2049,-97,-18,-8,-17,4,51,0,0,0,0,0,0,0,0,0,0,0,
0,0,2042,-101,-20,-9,-21,5,33,0,0,0,0,0,0,0,0,0,0,0,
0,0,2052,-99,-18,-7,-17,1,50,0,0,0,0,0,0,0,0,0,0,0,
0,0,2049,-93,-20,-10,-16,4,52,0,0,0,0,0,0,0,0,0,0,0,
0,0,2049,-101,-14,-6,-18,4,52,0,0,0,0,0,0,0,0,0,0,0,
0,0,2047,-103,-18,-6,-20,3,40,0,0,0,0,0,0,0,0,0,0,0,
0,0,2050,-103,-14,-3,-17,9,60,0,0,0,0,0,0,0,0,0,0,0,
0,0,2040,-91,-23,-10,-21,5,37,0,0,0,0,0,0,0,0,0,0,0,
0,0,2052,-103,-16,-4,-16,11,62,0,0,0,0,0,0,0,0,0,0,0,
0,0,2047,-97,-17,-5,-18,3,50,0,0,0,0,0,0,0,0,0,0,0,
0,0,2034,-97,-15,-1,-17,8,49,0,0,0,0,0,0,0,0,0,0,0,
0,0,2051,-105,-19,-6,-18,8,49,0,0,0,0,0,0,0,0,0,0,0,
0,0,2045,-94,-13,-7,-18,3,53,0,0,0,0,0,0,0,0,0,0,0,
0,0,2048,-102,-26,-7,-18,6,39,0,0,0,0,0,0,0,0,0,0,0,
0,0,2040,-103,-14,-8,-19,3,36,0,0,0,0,0,0,0,0,0,0,0,
0,0,2048,-97,-16,-1,-16,6,62,0,0,0,0,0,0,0,0,0,0,0,
0,0,2054,-98,-16,-6,-20,5,57,0,0,0,0,0,0,0,0,0,0,0,
0,0,2039,-96,-17,-4,-17,7,49,0,0,0,0,0,0,0,0,0,0,0,
0,0,2044,-100,-15,-6,-18,7,49,0,0,0,0,0,0,0,0,0,0,0,
0,0,2051,-99,-16,-11,-20,3,46,0,0,0,0,0,0,0,0,0,0,0,
0,0,2050,-103,-17,-8,-18,6,48,0,0,0,0,0,0,0,0,0,0,0,
0,0,2051,-98,-23,-8,-19,6,47,0,0,0,0,0,0,0,0,0,0,0,
0,0,2042,-99,-19,-11,-17,8,41,0,0,0,0,0,0,0,0,0,0,0,
0,0,2042,-99,-22,-7,-19,4,36,0,0,0,0,0,0,0,0,0,0,0,
0,0,2048,-98,-10,-7,-19,5,57,0,0,0,0,0,0,0,0,0,0,0,
0,0,2050,-98,-23,-8,-16,4,47,0,0,0,0,0,0,0,0,0,0,0,
0,0,2044,-101,-10,-8,-19,4,47,0,0,0,0,0,0,0,0,0,0,0,
0,0,2044,-102,-16,-6,-20,3,40,0,0,0,0,0,0,0,0,0,0,0,
0,0,2049,-97,-7,-4,-19,7,67,0,0,0,0,0,0,0,0,0,0,0,
0,0,2051,-102,-10,-5,-17,8,63,0,0,0,0,0,0,0,0,0,0,0,
0,0,2041,-96,-15,-8,-19,4,44,0,0,0,0,0,0,0,0,0,0,0,
0,0,2048,-98,-18,-8,-18,3,47,0,0,0,0,0,0,0,0,0,0,0,
0,0,2047,-101,-14,-4,-19,9,55,0,0,0,0,0,0,0,0,0,0,0,
0,0,2044,-105,-23,-4,-18,5,36,0,0,0,0,0,0,0,0,0,0,0,
0,0,2045,-99,-18,-6,-19,6,46,0,0,0,0,0,0,0,0,0,0,0,
0,0,2042,-95,-21,-6,-19,6,44,0,0,0,0,0,0,0,0,0,0,0,
0,0,2045,-103,-17,-6,-15,7,48,0,0,0,0,0,0,0,0,0,0,0,
0,0,2048,-96,-10,-7,-21,5,57,0,0,0,0,0,0,0,0,0,0,0,
0,0,2049,-98,-19,-6,-22,6,48,0,0,0,0,0,0,0,0,0,0,0,
0,0,2045,-101,-17,-7,-17,4,44,0,0,0,0,0,0,0,0,0,0,0,
0,0,2047,-100,-22,-6,-18,5,43,0,0,0,0,0,0,0,0,0,0,0,
0,0,2049,-103,-26,-5,-20,9,42,0,0,0,0,0,0,0,0,0,0,0,
0,0,2038,-98,-21,-6,-19,8,39,0,0,0,0,0,0,0,0,0,0,0,
0,0,2045,-99,-16,-3,-21,6,49,0,0,0,0,0,0,0,0,0,0,0,
0,0,2045,-98,-13,-7,-19,2,47,0,0,0,0,0,0,0,0,0,0,0,
0,0,2045,-101,-22,-3,-20,2,38,0,0,0,0,0,0,0,0,0,0,0,
0,0,2050,-102,-15,-5,-18,1,49,0,0,0,0,0,0,0,0,0,0,0,
0,0,2042,-99,-16,-9,-18,7,44,0,0,0,0,0,0,0,0,0,0,0,
0,0,2045,-103,-10,-6,-17,8,54,0,0,0,0,0,0,0,0,0,0,0,
0,0,2051,-106,-11,-9,-19,1,45,0,0,0,0,0,0,0,0,0,0,0,
0,0,2041,-96,-19,-5,-21,6,43,0,0,0,0,0,0,0,0,0,0,0,
0,0,2042,-97,-13,-6,-16,4,51,0,0,0,0,0,0,0,0,0,0,0,
0,0,2050,-104,-21,-7,-19,6,43,0,0,0,0,0,0,0,0,0,0,0,
0,0,2044,-97,-15,-5,-19,3,48,0,0,0,0,0,0,0,0,0,0,0,
0,0,2044,-105,-17,-4,-20,5,40,0,0,0,0,0,0,0,0,0,0,0,
0,0,2041,-96,-17,-3,-19,5,48,0,0,0,0,0,0,0,0,0,0,0,
0,0,2050,-105,-20,-6,-20,8,45,0,0,0,0,0,0,0,0,0,0,0,
0,0,2047,-98,-21,-7,-20,4,42,0,0,0,0,0,0,0,0,0,0,0,
0,0,2052,-102,-16,-5,-19,4,52,0,0,0,0,0,0,0,0,0,0,0,
0,0,2048,-97,-16,-8,-18,5,52,0,0,0,0,0,0,0,0,0,0,0,
0,0,2051,-104,-16,-5,-17,5,52,0,0,0,0,0,0,0,0,0,0,0,
0,0,2044,-98,-13,-3,-16,5,56,0,0,0,0,0,0,0,0,0,0,0,
0,0,2044,-105,-18,-6,-22,7,37,0,0,0,0,0,0,0,0,0,0,0,
0,0,2042,-103,-19,-8,-20,8,37,0,0,0,0,0,0,0,0,0,0,0,
0,0,2046,-100,-14,-8,-20,5,46,0,0,0,0,0,0,0,0,0,0,0,
0,0,2053,-101,-10,-4,-17,6,65,0,0,0,0,0,0,0,0,0,0,0,
0,0,2044,-104,-16,-6,-19,7,43,0,0,0,0,0,0,0,0,0,0,0,
0,0,2043,-101,-16,-4,-19,9,49,0,0,0,0,0,0,0,0,0,0,0,
0,0,2047,-100,-16,-6,-18,9,53,0,0,0,0,0,0,0,0,0,0,0,
0,0,2047,-96,-20,-3,-16,9,58,0,0,0,0,0,0,0,0,0,0,0,
0,0,2050,-95,-17,-7,-20,3,52,0,0,0,0,0,0,0,0,0,0,0,
0,0,2044,-98,-9,-11,-19,2,46,0,0,0,0,0,0,0,0,0,0,0,
0,0,2044,-101,-11,-5,-19,5,50,0,0,0,0,0,0,0,0,0,0,0,
0,0,2048,-89,-15,-6,-18,6,64,0,0,0,0,0,0,0,0,0,0,0,
0,0,2053,-98,-19,-11,-17,7,53,0,0,0,0,0,0,0,0,0,0,0,
0,0,2047,-100,-18,-6,-19,8,49,0,0,0,0,0,0,0,0,0,0,0,
0,0,2049,-90,-16,-6,-16,5,64,0,0,0,0,0,0,0,0,0,0,0,
0,0,2041,-97,-11,-12,-17,2,43,0,0,0,0,0,0,0,0,0,0,0,
0,0,2043,-96,-16,-3,-14,7,58,0,0,0,0,0,0,0,0,0,0,0,
0,0,2047,-109,-17,-3,-21,9,43,0,0,0,0,0,0,0,0,0,0,0,
0,0,2046,-102,-21,-5,-16,6,45,0,0,0,0,0,0,0,0,0,0,0,
0,0,2039,-100,-20,-7,-18,6,37,0,0,0,0,0,0,0,0,0,0,0,
0,0,2046,-101,-17,-8,-23,5,39,0,0,0,0,0,0,0,0,0,0,0,
0,0,2046,-95,-16,-4,-20,4,52,0,0,0,0,0,0,0,0,0,0,0,
0,0,2050,-96,-14,-9,-19,4,54,0,0,0,0,0,0,0,0,0,0,0,
0,0,2050,-93,-12,-7,-16,6,66,0,0,0,0,0,0,0,0,0,0,0,
0,0,2050,-98,-17,-6,-16,6,57,0,0,0,0,0,0,0,0,0,0,0,
0,0,2046,-97,-10,-8,-21,3,50,0,0,0,0,0,0,0,0,0,0,0,
0,0,2041,-100,-17,-8,-21,1,33,0,0,0,0,0,0,0,0,0,0,0,
0,0,2049,-95,-18,-7,-18,6,55,0,0,0,0,0,0,0,0,0,0,0,
0,0,2047,-96,-14,-7,-16,4,55,0,0,0,0,0,0,0,0,0,0,0,
0,0,2041,-105,-19,-7,-17,7,37,0,0,0,0,0,0,0,0,0,0,0,
0,0,2042,-99,-17,-3,-18,6,48,0,0,0,0,0,0,0,0,0,0,0,
0,0,2046,-95,-22,-7,-18,6,47,0,0,0,0,0,0,0,0,0,0,0,
0,0,2044,-102,-26,-6,-17,5,35,0,0,0,0,0,0,0,0,0,0,0,
0,0,2042,-97,-22,-11,-17,6,38,0,0,0,0,0,0,0,0,0,0,0,
0,0,2047,-93,-15,-6,-18,4,56,0,0,0,0,0,0,0,0,0,0,0,
0,0,2047,-93,-15,-6,-18,4,56,0,0,0,0,0,0,0,0,0,0,0,
0,0,2049,-109,-17,-8,-19,5,39,0,0,0,0,0,0,0,0,0,0,0,
0,0,2046,-96,-19,-7,-20,5,46,0,0,0,0,0,0,0,0,0,0,0,
0,0,2047,-102,-16,-5,-20,5,46,0,0,0,0,0,0,0,0,0,0,0,
0,0,2050,-101,-14,-9,-18,4,50,0,0,0,0,0,0,0,0,0,0,0,
0,0,2050,-101,-14,-5,-18,5,55,0,0,0,0,0,0,0,0,0,0,0,
0,0,2051,-94,-14,-7,-20,4,58,0,0,0,0,0,0,0,0,0,0,0,
0,0,2046,-101,-22,-6,-19,6,41,0,0,0,0,0,0,0,0,0,0,0,
0,0,2042,-102,-23,-5,-18,4,35,0,0,0,0,0,0,0,0,0,0,0,
0,0,2042,-102,-23,-5,-16,8,41,0,0,0,0,0,0,0,0,0,0,0,
0,0,2049,-97,-27,-6,-18,4,43,0,0,0,0,0,0,0,0,0,0,0,
0,0,2045,-92,-13,-5,-16,6,62,0,0,0,0,0,0,0,0,0,0,0,
0,0,2048,-97,-25,-7,-17,7,47,0,0,0,0,0,0,0,0,0,0,0,
0,0,2046,-106,-11,-8,-20,6,44,0,0,0,0,0,0,0,0,0,0,0,
0,0,2050,-104,-22,-5,-18,3,42,0,0,0,0,0,0,0,0,0,0,0,
0,0,2052,-102,-16,-10,-16,4,50,0,0,0,0,0,0,0,0,0,0,0,
0,0,2047,-104,-21,-7,-19,6,39,0,0,0,0,0,0,0,0,0,0,0,
0,0,2044,-97,-20,-9,-18,6,43,0,0,0,0,0,0,0,0,0,0,0,
0,0,2050,-100,-16,-5,-18,4,53,0,0,0,0,0,0,0,0,0,0,0,
0,0,2042,-99,-11,-7,-16,6,52,0,0,0,0,0,0,0,0,0,0,0,
0,0,2042,-99,-24,-6,-14,5,41,0,0,0,0,0,0,0,0,0,0,0,
0,0,2046,-97,-23,-8,-16,7,46,0,0,0,0,0,0,0,0,0,0,0,
0,0,2044,-108,-15,-7,-17,3,37,0,0,0,0,0,0,0,0,0,0,0,
0,0,2046,-106,-19,-3,-17,6,44,0,0,0,0,0,0,0,0,0,0,0,
0,0,2045,-102,-17,-3,-20,4,44,0,0,0,0,0,0,0,0,0,0,0,
0,0,2044,-98,-16,-8,-14,7,52,0,0,0,0,0,0,0,0,0,0,0,
0,0,2046,-97,-12,-6,-19,6,55,0,0,0,0,0,0,0,0,0,0,0,
0,0,2049,-99,-19,-8,-18,5,48,0,0,0,0,0,0,0,0,0,0,0,
0,0,2044,-96,-8,-3,-17,5,62,0,0,0,0,0,0,0,0,0,0,0,
0,0,2043,-102,-15,-10,-18,5,40,0,0,0,0,0,0,0,0,0,0,0,
0,0,2042,-97,-8,-9,-20,9,54,0,0,0,0,0,0,0,0,0,0,0,
0,0,2048,-104,-16,-7,-17,7,49,0,0,0,0,0,0,0,0,0,0,0,
0,0,2042,-103,-17,-7,-20,8,40,0,0,0,0,0,0,0,0,0,0,0,
0,0,2041,-97,-14,-5,-22,6,46,0,0,0,0,0,0,0,0,0,0,0,
0,0,2045,-101,-17,-5,-20,9,48,0,0,0,0,0,0,0,0,0,0,0,
0,0,2047,-98,-16,-6,-22,4,46,0,0,0,0,0,0,0,0,0,0,0,
0,0,2046,-100,-14,-8,-19,5,47,0,0,0,0,0,0,0,0,0,0,0,
0,0,2049,-112,-13,-4,-18,7,47,0,0,0,0,0,0,0,0,0,0,0,
0,0,2046,-97,-17,-7,-19,3,46,0,0,0,0,0,0,0,0,0,0,0,
0,0,2046,-95,-13,-7,-18,4,54,0,0,0,0,0,0,0,0,0,0,0,
0,0,2046,-101,-19,-7,-18,7,45,0,0,0,0,0,0,0,0,0,0,0,
0,0,2041,-91,-23,-10,-19,6,41,0,0,0,0,0,0,0,0,0,0,0,
0,0,2047,-101,-12,-5,-20,4,50,0,0,0,0,0,0,0,0,0,0,0,
0,0,2044,-94,-15,-3,-19,8,58,0,0,0,0,0,0,0,0,0,0,0,
0,0,2043,-99,-18,-9,-19,8,43,0,0,0,0,0,0,0,0,0,0,0,
0,0,2049,-105,-13,-6,-15,5,53,0,0,0,0,0,0,0,0,0,0,0,
0,0,2042,-102,-17,-5,-20,4,39,0,0,0,0,0,0,0,0,0,0,0,
0,0,2046,-101,-10,-9,-16,6,53,0,0,0,0,0,0,0,0,0,0,0,
0,0,2047,-104,-12,-10,-17,5,46,0,0,0,0,0,0,0,0,0,0,0,
0,0,2046,-105,-15,-7,-20,8,44,0,0,0,0,0,0,0,0,0,0,0,
0,0,2044,-102,-19,-7,-17,8,44,0,0,0,0,0,0,0,0,0,0,0,
0,0,2047,-99,-13,-4,-18,7,57,0,0,0,0,0,0,0,0,0,0,0,
0,0,2052,-95,-17,-12,-20,5,51,0,0,0,0,0,0,0,0,0,0,0,
0,0,2042,-101,-18,-5,-20,5,40,0,0,0,0,0,0,0,0,0,0,0,
0,0,2045,-101,-9,-8,-19,6,51,0,0,0,0,0,0,0,0,0,0,0,
0,0,2042,-99,-19,-6,-19,7,43,0,0,0,0,0,0,0,0,0,0,0,
0,0,2050,-101,-21,-7,-22,7,44,0,0,0,0,0,0,0,0,0,0,0,
0,0,2044,-100,-19,-8,-20,5,39,0,0,0,0,0,0,0,0,0,0,0,
0,0,2041,-102,-18,-8,-20,6,36,0,0,0,0,0,0,0,0,0,0,0,
0,0,2045,-103,-20,-6,-20,4,37,0,0,0,0,0,0,0,0,0,0,0,
0,0,2048,-99,-11,-8,-17,5,56,0,0,0,0,0,0,0,0,0,0,0,
0,0,2045,-109,-21,-4,-18,5,35,0,0,0,0,0,0,0,0,0,0,0,
0,0,2042,-102,-15,-7,-19,5,41,0,0,0,0,0,0,0,0,0,0,0,
0,0,2048,-97,-19,-7,-18,4,49,0,0,0,0,0,0,0,0,0,0,0,
0,0,2045,-100,-16,-10,-20,4,40,0,0,0,0,0,0,0,0,0,0,0,
0,0,2044,-101,-27,-5,-18,5,35,0,0,0,0,0,0,0,0,0,0,0,
0,0,2040,-97,-17,-7,-17,6,45,0,0,0,0,0,0,0,0,0,0,0,
0,0,2044,-113,-19,-7,-19,3,26,0,0,0,0,0,0,0,0,0,0,0,
0,0,2043,-96,-15,-7,-19,4,47,0,0,0,0,0,0,0,0,0,0,0,
0,0,2052,-100,-19,-7,-18,3,49,0,0,0,0,0,0,0,0,0,0,0,
0,0,2045,-94,-18,-7,-18,7,52,0,0,0,0,0,0,0,0,0,0,0,
0,0,2045,-106,-15,-8,-18,8,43,0,0,0,0,0,0,0,0,0,0,0,
0,0,2047,-108,-22,-4,-22,3,31,0,0,0,0,0,0,0,0,0,0,0,
0,0,2049,-104,-16,-7,-17,6,49,0,0,0,0,0,0,0,0,0,0,0,
0,0,2042,-103,-22,-7,-19,3,31,0,0,0,0,0,0,0,0,0,0,0,
0,0,2048,-105,-17,-7,-22,8,43,0,0,0,0,0,0,0,0,0,0,0,
0,0,2049,-106,-20,-8,-17,5,41,0,0,0,0,0,0,0,0,0,0,0,
0,0,2049,-98,-20,-7,-17,5,50,0,0,0,0,0,0,0,0,0,0,0,
0,0,2043,-98,-20,-6,-19,4,41,0,0,0,0,0,0,0,0,0,0,0,
0,0,2043,-103,-17,-10,-19,8,39,0,0,0,0,0,0,0,0,0,0,0,
0,0,2041,-97,-17,-8,-18,4,42,0,0,0,0,0,0,0,0,0,0,0,
0,0,2039,-100,-17,-6,-21,7,39,0,0,0,0,0,0,0,0,0,0,0,
0,0,2047,-95,-20,-5,-15,7,56,0,0,0,0,0,0,0,0,0,0,0,
0,0,2049,-100,-14,-6,-17,9,59,0,0,0,0,0,0,0,0,0,0,0,
0,0,2050,-101,-22,-5,-21,4,43,0,0,0,0,0,0,0,0,0,0,0,
0,0,2052,-91,-21,-5,-17,5,61,0,0,0,0,0,0,0,0,0,0,0,
0,0,2050,-104,-13,-8,-17,4,50,0,0,0,0,0,0,0,0,0,0,0,
0,0,2048,-99,-19,-10,-20,5,43,0,0,0,0,0,0,0,0,0,0,0,
0,0,2046,-98,-16,-4,-20,3,48,0,0,0,0,0,0,0,0,0,0,0,
0,0,2046,-97,-18,-8,-17,4,47,0,0,0,0,0,0,0,0,0,0,0,
0,0,2051,-97,-18,-2,-18,8,62,0,0,0,0,0,0,0,0,0,0,0,
0,0,2044,-102,-16,-8,-16,4,43,0,0,0,0,0,0,0,0,0,0,0,
0,0,2038,-101,-16,-6,-22,6,36,0,0,0,0,0,0,0,0,0,0,0,
0,0,2048,-104,-21,-5,-19,5,42,0,0,0,0,0,0,0,0,0,0,0,
0,0,2044,-103,-16,-5,-17,7,47,0,0,0,0,0,0,0,0,0,0,0,
0,0,2047,-105,-16,-5,-18,7,47,0,0,0,0,0,0,0,0,0,0,0,
0,0,2049,-95,-16,-7,-18,5,56,0,0,0,0,0,0,0,0,0,0,0,
0,0,2041,-95,-15,-6,-17,7,52,0,0,0,0,0,0,0,0,0,0,0,
0,0,2049,-104,-26,-7,-18,7,39,0,0,0,0,0,0,0,0,0,0,0,
0,0,2050,-97,-16,-8,-19,4,52,0,0,0,0,0,0,0,0,0,0,0,
0,0,2046,-95,-13,-10,-18,7,54,0,0,0,0,0,0,0,0,0,0,0,
0,0,2050,-94,-14,-9,-18,7,60,0,0,0,0,0,0,0,0,0,0,0,
0,0,2052,-99,-16,-6,-20,6,55,0,0,0,0,0,0,0,0,0,0,0,
0,0,2047,-102,-22,-11,-19,5,35,0,0,0,0,0,0,0,0,0,0,0,
0,0,2046,-94,-19,-5,-21,3,47,0,0,0,0,0,0,0,0,0,0,0,
0,0,2047,-100,-16,-13,-19,8,44,0,0,0,0,0,0,0,0,0,0,0,
0,0,2045,-100,-15,-6,-19,8,50,0,0,0,0,0,0,0,0,0,0,0,
0,0,2044,-98,-15,-5,-18,3,48,0,0,0,0,0,0,0,0,0,0,0,
0,0,2048,-105,-11,-6,-17,7,54,0,0,0,0,0,0,0,0,0,0,0,
0,0,2048,-105,-11,-6,-17,7,54,0,0,0,0,0,0,0,0,0,0,0,
0,0,2048,-94,-11,-4,-17,9,69,0,0,0,0,0,0,0,0,0,0,0,
0,0,2043,-93,-21,-5,-18,5,48,0,0,0,0,0,0,0,0,0,0,0,
0,0,2045,-100,-17,-6,-18,6,47,0,0,0,0,0,0,0,0,0,0,0,
0,0,2045,-100,-20,-6,-18,6,44,0,0,0,0,0,0,0,0,0,0,0,
0,0,2045,-100,-20,-4,-22,8,44,0,0,0,0,0,0,0,0,0,0,0,
0,0,2045,-103,-15,-7,-18,3,42,0,0,0,0,0,0,0,0,0,0,0,
0,0,2048,-94,-18,-5,-20,6,55,0,0,0,0,0,0,0,0,0,0,0,
0,0,2046,-106,-17,-7,-20,3,36,0,0,0,0,0,0,0,0,0,0,0,
0,0,2046,-106,-17,-5,-19,6,42,0,0,0,0,0,0,0,0,0,0,0,
0,0,2045,-107,-19,-7,-19,4,34,0,0,0,0,0,0,0,0,0,0,0,
0,0,2041,-101,-19,-6,-17,1,36,0,0,0,0,0,0,0,0,0,0,0,
0,0,2046,-111,-15,-9,-15,8,41,0,0,0,0,0,0,0,0,0,0,0,
0,0,2042,-104,-22,-7,-19,10,37,0,0,0,0,0,0,0,0,0,0,0,
0,0,2045,-97,-22,-6,-19,7,45,0,0,0,0,0,0,0,0,0,0,0,
0,0,2045,-95,-18,-10,-19,3,43,0,0,0,0,0,0,0,0,0,0,0,
0,0,2045,-100,-16,-5,-17,6,50,0,0,0,0,0,0,0,0,0,0,0,
0,0,2049,-99,-16,-6,-18,6,54,0,0,0,0,0,0,0,0,0,0,0,
0,0,2039,-94,-16,-10,-18,4,42,0,0,0,0,0,0,0,0,0,0,0,
0,0,2038,-106,-16,-10,-20,4,27,0,0,0,0,0,0,0,0,0,0,0,
0,0,2046,-97,-13,-4,-18,8,59,0,0,0,0,0,0,0,0,0,0,0,
0,0,2042,-96,-18,-8,-22,5,40,0,0,0,0,0,0,0,0,0,0,0,
0,0,2047,-102,-19,-6,-19,6,44,0,0,0,0,0,0,0,0,0,0,0,
0,0,2046,-96,-26,-7,-21,4,37,0,0,0,0,0,0,0,0,0,0,0,
0,0,2043,-94,-10,-4,-17,8,63,0,0,0,0,0,0,0,0,0,0,0,
0,0,2044,-100,-20,-6,-20,2,37,0,0,0,0,0,0,0,0,0,0,0,
0,0,2041,-105,-16,-11,-20,2,28,0,0,0,0,0,0,0,0,0,0,0,
0,0,2047,-98,-11,-7,-18,4,54,0,0,0,0,0,0,0,0,0,0,0,
0,0,2047,-99,-16,-5,-18,6,52,0,0,0,0,0,0,0,0,0,0,0,
0,0,2044,-89,-16,-5,-18,3,56,0,0,0,0,0,0,0,0,0,0,0,
0,0,2046,-103,-9,-5,-21,7,52,0,0,0,0,0,0,0,0,0,0,0,
0,0,2046,-106,-18,-7,-18,6,40,0,0,0,0,0,0,0,0,0,0,0,
0,0,2035,-103,-21,-7,-19,8,30,0,0,0,0,0,0,0,0,0,0,0,
0,0,2054,-107,-20,-8,-20,4,41,0,0,0,0,0,0,0,0,0,0,0,
0,0,2045,-98,-17,-8,-20,5,44,0,0,0,0,0,0,0,0,0,0,0,
0,0,2042,-100,-11,-4,-20,4,48,0,0,0,0,0,0,0,0,0,0,0,
0,0,2045,-93,-23,-6,-20,5,45,0,0,0,0,0,0,0,0,0,0,0,
0,0,2038,-102,-14,-6,-17,5,41,0,0,0,0,0,0,0,0,0,0,0,
0,0,2043,-92,-13,-4,-17,6,60,0,0,0,0,0,0,0,0,0,0,0,
0,0,2046,-96,-17,-5,-18,7,54,0,0,0,0,0,0,0,0,0,0,0,
0,0,2044,-99,-18,-7,-18,7,46,0,0,0,0,0,0,0,0,0,0,0,
0,0,2053,-105,-22,-6,-18,6,46,0,0,0,0,0,0,0,0,0,0,0,
0,0,2043,-105,-19,-7,-20,5,34,0,0,0,0,0,0,0,0,0,0,0,
0,0,2042,-104,-20,-9,-19,8,35,0,0,0,0,0,0,0,0,0,0,0,
0,0,2045,-103,-15,-6,-19,4,43,0,0,0,0,0,0,0,0,0,0,0,
0,0,2043,-101,-18,-8,-21,1,33,0,0,0,0,0,0,0,0,0,0,0,
0,0,2045,-91,-13,-7,-19,8,60,0,0,0,0,0,0,0,0,0,0,0,
0,0,2047,-93,-16,-6,-19,4,54,0,0,0,0,0,0,0,0,0,0,0,
0,0,2042,-103,-15,-9,-18,5,39,0,0,0,0,0,0,0,0,0,0,0,
0,0,2055,-95,-20,-5,-16,6,63,0,0,0,0,0,0,0,0,0,0,0,
0,0,2047,-102,-21,-4,-17,6,46,0,0,0,0,0,0,0,0,0,0,0,
0,0,2045,-107,-11,-4,-19,8,49,0,0,0,0,0,0,0,0,0,0,0,
0,0,2049,-95,-22,-5,-19,7,53,0,0,0,0,0,0,0,0,0,0,0,
0,0,2050,-98,-13,-4,-21,4,56,0,0,0,0,0,0,0,0,0,0,0,
0,0,2043,-102,-15,-5,-18,4,44,0,0,0,0,0,0,0,0,0,0,0,
0,0,2046,-107,-16,-6,-19,8,43,0,0,0,0,0,0,0,0,0,0,0,
0,0,2040,-95,-17,-8,-21,7,43,0,0,0,0,0,0,0,0,0,0,0,
0,0,2043,-100,-13,-7,-19,5,46,0,0,0,0,0,0,0,0,0,0,0,
0,0,2041,-103,-11,-9,-18,4,41,0,0,0,0,0,0,0,0,0,0,0,
0,0,2047,-95,-16,-8,-16,6,55,0,0,0,0,0,0,0,0,0,0,0,
0,0,2051,-94,-18,-7,-16,3,57,0,0,0,0,0,0,0,0,0,0,0,
0,0,2045,-95,-15,-7,-16,4,53,0,0,0,0,0,0,0,0,0,0,0,
0,0,2045,-100,-11,-5,-19,10,57,0,0,0,0,0,0,0,0,0,0,0,
0,0,2050,-104,-17,-7,-18,5,47,0,0,0,0,0,0,0,0,0,0,0,
0,0,2048,-106,-26,-3,-18,10,43,0,0,0,0,0,0,0,0,0,0,0,
0,0,2041,-97,-19,-9,-19,4,38,0,0,0,0,0,0,0,0,0,0,0,
0,0,2046,-97,-18,-9,-20,8,47,0,0,0,0,0,0,0,0,0,0,0,
0,0,2045,-95,-14,-8,-17,5,53,0,0,0,0,0,0,0,0,0,0,0,
0,0,2042,-102,-19,-4,-17,5,42,0,0,0,0,0,0,0,0,0,0,0,
0,0,2045,-94,-20,-7,-17,8,52,0,0,0,0,0,0,0,0,0,0,0,
0,0,2045,-100,-11,-8,-20,8,51,0,0,0,0,0,0,0,0,0,0,0,
0,0,2041,-101,-18,-8,-19,5,37,0,0,0,0,0,0,0,0,0,0,0,
0,0,2047,-106,-19,-6,-16,3,40,0,0,0,0,0,0,0,0,0,0,0,
0,0,2044,-102,-22,-7,-17,5,38,0,0,0,0,0,0,0,0,0,0,0,
0,0,2045,-102,-23,-5,-19,7,40,0,0,0,0,0,0,0,0,0,0,0,
0,0,2046,-97,-24,-7,-20,5,40,0,0,0,0,0,0,0,0,0,0,0,
0,0,2050,-100,-15,-3,-17,5,58,0,0,0,0,0,0,0,0,0,0,0,
0,0,2050,-100,-16,-6,-17,6,55,0,0,0,0,0,0,0,0,0,0,0,
0,0,2045,-101,-13,-4,-20,7,51,0,0,0,0,0,0,0,0,0,0,0,
0,0,2040,-98,-21,-5,-17,7,43,0,0,0,0,0,0,0,0,0,0,0,
0,0,2048,-100,-19,-7,-20,5,45,0,0,0,0,0,0,0,0,0,0,0,
0,0,2042,-105,-14,-6,-18,6,42,0,0,0,0,0,0,0,0,0,0,0,
0,0,2048,-103,-19,-8,-21,6,41,0,0,0,0,0,0,0,0,0,0,0,
0,0,2042,-92,-13,-5,-20,6,55,0,0,0,0,0,0,0,0,0,0,0,
0,0,2050,-94,-16,-6,-18,6,60,0,0,0,0,0,0,0,0,0,0,0,
0,0,2048,-101,-14,-5,-18,5,53,0,0,0,0,0,0,0,0,0,0,0,
0,0,2044,-101,-16,-6,-19,3,42,0,0,0,0,0,0,0,0,0,0,0,
0,0,2045,-96,-17,-6,-16,6,53,0,0,0,0,0,0,0,0,0,0,0,
0,0,2050,-98,-18,-11,-18,6,49,0,0,0,0,0,0,0,0,0,0,0,
0,0,2048,-97,-24,-6,-18,6,47,0,0,0,0,0,0,0,0,0,0,0,
0,0,2049,-96,-22,-4,-18,5,52,0,0,0,0,0,0,0,0,0,0,0,
0,0,2048,-95,-16,-4,-21,5,55,0,0,0,0,0,0,0,0,0,0,0,
0,0,2049,-100,-19,-8,-20,4,44,0,0,0,0,0,0,0,0,0,0,0,
0,0,2038,-104,-23,-6,-17,8,33,0,0,0,0,0,0,0,0,0,0,0,
0,0,2051,-93,-16,-5,-18,7,64,0,0,0,0,0,0,0,0,0,0,0,
0,0,2047,-103,-21,-7,-17,5,41,0,0,0,0,0,0,0,0,0,0,0,
0,0,2044,-103,-19,-9,-18,4,36,0,0,0,0,0,0,0,0,0,0,0,
0,0,2045,-103,-27,-6,-17,7,36,0,0,0,0,0,0,0,0,0,0,0,
0,0,2054,-94,-14,-5,-21,7,65,0,0,0,0,0,0,0,0,0,0,0,
0,0,2044,-107,-24,-6,-19,7,32,0,0,0,0,0,0,0,0,0,0,0,
0,0,2043,-101,-17,-6,-18,3,41,0,0,0,0,0,0,0,0,0,0,0,
0,0,2041,-98,-18,-7,-17,7,45,0,0,0,0,0,0,0,0,0,0,0,
0,0,2041,-104,-22,-5,-18,9,38,0,0,0,0,0,0,0,0,0,0,0,
0,0,2041,-95,-22,-6,-21,5,39,0,0,0,0,0,0,0,0,0,0,0,
0,0,2041,-105,-18,-5,-21,5,34,0,0,0,0,0,0,0,0,0,0,0,
0,0,2038,-97,-20,-8,-15,6,41,0,0,0,0,0,0,0,0,0,0,0,
0,0,2048,-93,-20,-5,-18,6,56,0,0,0,0,0,0,0,0,0,0,0,
0,0,2049,-95,-27,-5,-21,5,44,0,0,0,0,0,0,0,0,0,0,0,
0,0,2045,-97,-14,-3,-19,8,57,0,0,0,0,0,0,0,0,0,0,0,
0,0,2046,-98,-16,-5,-19,3,48,0,0,0,0,0,0,0,0,0,0,0,
0,0,2046,-98,-16,-5,-19,3,48,0,0,0,0,0,0,0,0,0,0,0,
0,0,2041,-103,-15,-8,-20,4,36,0,0,0,0,0,0,0,0,0,0,0,
0,0,2040,-100,-18,-4,-21,6,40,0,0,0,0,0,0,0,0,0,0,0,
0,0,2040,-97,-18,-6,-18,5,43,0,0,0,0,0,0,0,0,0,0,0,
0,0,2040,-97,-18,-5,-19,7,45,0,0,0,0,0,0,0,0,0,0,0,
0,0,2041,-112,-22,-7,-18,6,25,0,0,0,0,0,0,0,0,0,0,0,
0,0,2047,-96,-12,-8,-14,10,64,0,0,0,0,0,0,0,0,0,0,0,
0,0,2047,-107,-21,-7,-20,5,34,0,0,0,0,0,0,0,0,0,0,0,
0,0,2047,-107,-21,-6,-19,6,37,0,0,0,0,0,0,0,0,0,0,0,
0,0,2040,-104,-19,-7,-19,3,31,0,0,0,0,0,0,0,0,0,0,0,
0,0,2044,-113,-15,-6,-18,8,37,0,0,0,0,0,0,0,0,0,0,0,
0,0,2048,-99,-20,-9,-17,5,46,0,0,0,0,0,0,0,0,0,0,0,
0,0,2045,-103,-17,-7,-17,7,45,0,0,0,0,0,0,0,0,0,0,0,
0,0,2041,-100,-16,-4,-19,7,46,0,0,0,0,0,0,0,0,0,0,0,
0,0,2046,-95,-22,-6,-18,3,45,0,0,0,0,0,0,0,0,0,0,0,
0,0,2048,-101,-25,-5,-18,9,46,0,0,0,0,0,0,0,0,0,0,0,
0,0,2041,-97,-17,-5,-19,3,43,0,0,0,0,0,0,0,0,0,0,0,
0,0,2044,-99,-15,-2,-17,7,55,0,0,0,0,0,0,0,0,0,0,0,
0,0,2045,-99,-16,-5,-20,4,46,0,0,0,0,0,0,0,0,0,0,0,
0,0,2045,-97,-19,-7,-18,5,46,0,0,0,0,0,0,0,0,0,0,0,
0,0,2049,-104,-16,-4,-20,1,44,0,0,0,0,0,0,0,0,0,0,0,
0,0,2043,-95,-15,-8,-19,6,49,0,0,0,0,0,0,0,0,0,0,0,
0,0,2050,-102,-14,-4,-17,8,59,0,0,0,0,0,0,0,0,0,0,0,
0,0,2048,-105,-16,-9,-20,9,45,0,0,0,0,0,0,0,0,0,0,0,
0,0,2044,-91,-18,-6,-18,2,50,0,0,0,0,0,0,0,0,0,0,0,
0,0,2046,-107,-16,-5,-20,7,42,0,0,0,0,0,0,0,0,0,0,0,
0,0,2047,-106,-22,-10,-17,6,35,0,0,0,0,0,0,0,0,0,0,0,
0,0,2045,-95,-9,-5,-16,4,61,0,0,0,0,0,0,0,0,0,0,0,
0,0,2048,-101,-17,-10,-20,4,42,0,0,0,0,0,0,0,0,0,0,0,
0,0,2047,-98,-17,-5,-17,4,51,0,0,0,0,0,0,0,0,0,0,0,
0,0,2045,-102,-22,-5,-20,4,37,0,0,0,0,0,0,0,0,0,0,0,
0,0,2047,-103,-9,-6,-17,10,59,0,0,0,0,0,0,0,0,0,0,0,
0,0,2046,-103,-24,-2,-20,8,42,0,0,0,0,0,0,0,0,0,0,0,
0,0,2049,-99,-19,-6,-19,6,50,0,0,0,0,0,0,0,0,0,0,0,
0,0,2042,-98,-22,-4,-15,8,48,0,0,0,0,0,0,0,0,0,0,0,
0,0,2043,-96,-23,-2,-20,9,48,0,0,0,0,0,0,0,0,0,0,0,
0,0,2047,-98,-10,-6,-18,9,61,0,0,0,0,0,0,0,0,0,0,0,
0,0,2050,-101,-12,-6,-20,4,53,0,0,0,0,0,0,0,0,0,0,0,
0,0,2050,-105,-27,-7,-18,9,40,0,0,0,0,0,0,0,0,0,0,0,
0,0,2046,-95,-18,-6,-19,3,48,0,0,0,0,0,0,0,0,0,0,0,
0,0,2049,-104,-26,-7,-17,6,39,0,0,0,0,0,0,0,0,0,0,0,
0,0,2046,-99,-15,-8,-16,5,50,0,0,0,0,0,0,0,0,0,0,0,
0,0,2044,-100,-21,-9,-21,4,34,0,0,0,0,0,0,0,0,0,0,0,
0,0,2045,-103,-23,-8,-18,2,32,0,0,0,0,0,0,0,0,0,0,0,
0,0,2044,-105,-18,-8,-20,4,34,0,0,0,0,0,0,0,0,0,0,0,
0,0,2046,-102,-19,-6,-19,6,43,0,0,0,0,0,0,0,0,0,0,0,
0,0,2043,-106,-10,-1,-19,6,50,0,0,0,0,0,0,0,0,0,0,0,
0,0,2040,-98,-12,-3,-19,5,50,0,0,0,0,0,0,0,0,0,0,0,
0,0,2043,-100,-15,-8,-17,4,44,0,0,0,0,0,0,0,0,0,0,0,
0,0,2045,-95,-14,-6,-21,9,55,0,0,0,0,0,0,0,0,0,0,0,
0,0,2052,-99,-11,-9,-16,6,61,0,0,0,0,0,0,0,0,0,0,0,
0,0,2050,-100,-19,-7,-18,6,50,0,0,0,0,0,0,0,0,0,0,0,
0,0,2042,-107,-5,-8,-17,7,49,0,0,0,0,0,0,0,0,0,0,0,
0,0,2046,-100,-14,-9,-16,5,49,0,0,0,0,0,0,0,0,0,0,0,
0,0,2043,-101,-16,-2,-18,2,45,0,0,0,0,0,0,0,0,0,0,0,
0,0,2051,-102,-20,-7,-18,5,47,0,0,0,0,0,0,0,0,0,0,0,
0,0,2041,-106,-14,-9,-18,5,36,0,0,0,0,0,0,0,0,0,0,0,
0,0,2047,-103,-16,-5,-18,5,47,0,0,0,0,0,0,0,0,0,0,0,
0,0,2043,-89,-10,-7,-18,6,62,0,0,0,0,0,0,0,0,0,0,0,
0,0,2041,-100,-19,-4,-20,6,41,0,0,0,0,0,0,0,0,0,0,0,
0,0,2051,-101,-14,-5,-18,8,59,0,0,0,0,0,0,0,0,0,0,0,
0,0,2048,-102,-15,-9,-21,9,48,0,0,0,0,0,0,0,0,0,0,0,
0,0,2054,-102,-19,-6,-17,7,55,0,0,0,0,0,0,0,0,0,0,0,
0,0,2041,-101,-14,-10,-18,5,40,0,0,0,0,0,0,0,0,0,0,0,
0,0,2048,-101,-16,-7,-19,6,49,0,0,0,0,0,0,0,0,0,0,0,
0,0,2047,-106,-17,-9,-22,7,37,0,0,0,0,0,0,0,0,0,0,0,
0,0,2042,-101,-25,-5,-16,4,36,0,0,0,0,0,0,0,0,0,0,0,
0,0,2047,-95,-20,-7,-16,6,52,0,0,0,0,0,0,0,0,0,0,0,
0,0,2040,-96,-19,-9,-17,5,41,0,0,0,0,0,0,0,0,0,0,0,
0,0,2040,-99,-13,-9,-18,7,45,0,0,0,0,0,0,0,0,0,0,0,
0,0,2044,-93,-20,-9,-18,6,47,0,0,0,0,0,0,0,0,0,0,0,
0,0,2048,-102,-21,-9,-18,1,37,0,0,0,0,0,0,0,0,0,0,0,
0,0,2037,-102,-20,-8,-15,7,36,0,0,0,0,0,0,0,0,0,0,0,
0,0,2045,-98,-16,-8,-17,7,50,0,0,0,0,0,0,0,0,0,0,0,
0,0,2046,-91,-13,-12,-16,3,54,0,0,0,0,0,0,0,0,0,0,0,
0,0,2048,-94,-18,-8,-18,5,53,0,0,0,0,0,0,0,0,0,0,0,
0,0,2046,-100,-16,-7,-20,6,46,0,0,0,0,0,0,0,0,0,0,0,
0,0,2045,-103,-28,-4,-18,7,36,0,0,0,0,0,0,0,0,0,0,0,
0,0,2048,-115,-24,-7,-20,7,27,0,0,0,0,0,0,0,0,0,0,0,
0,0,2044,-89,-14,-7,-22,5,54,0,0,0,0,0,0,0,0,0,0,0,
0,0,2043,-99,-16,-5,-16,6,50,0,0,0,0,0,0,0,0,0,0,0,
0,0,2042,-97,-19,-4,-18,7,48,0,0,0,0,0,0,0,0,0,0,0,
0,0,2039,-98,-24,-4,-17,7,40,0,0,0,0,0,0,0,0,0,0,0,
0,0,2044,-103,-10,-6,-19,3,46,0,0,0,0,0,0,0,0,0,0,0,
0,0,2048,-103,-18,-5,-19,5,46,0,0,0,0,0,0,0,0,0,0,0,
0,0,2041,-101,-13,-6,-16,7,49,0,0,0,0,0,0,0,0,0,0,0,
0,0,2050,-105,-20,-6,-20,1,38,0,0,0,0,0,0,0,0,0,0,0,
0,0,2048,-100,-23,-6,-19,7,45,0,0,0,0,0,0,0,0,0,0,0,
0,0,2049,-101,-13,-8,-17,7,55,0,0,0,0,0,0,0,0,0,0,0,
0,0,2046,-98,-19,-7,-18,8,49,0,0,0,0,0,0,0,0,0,0,0,
0,0,2047,-100,-20,-7,-18,3,42,0,0,0,0,0,0,0,0,0,0,0,
0,0,2043,-100,-26,-3,-19,4,36,0,0,0,0,0,0,0,0,0,0,0,
0,0,2042,-105,-12,-7,-19,4,40,0,0,0,0,0,0,0,0,0,0,0,
0,0,2046,-100,-15,-9,-21,8,46,0,0,0,0,0,0,0,0,0,0,0,
0,0,2048,-94,-17,-5,-22,5,53,0,0,0,0,0,0,0,0,0,0,0,
0,0,2047,-98,-21,-10,-18,4,41,0,0,0,0,0,0,0,0,0,0,0,
0,0,2048,-101,-11,-7,-17,6,56,0,0,0,0,0,0,0,0,0,0,0,
0,0,2048,-102,-18,-5,-20,9,50,0,0,0,0,0,0,0,0,0,0,0,
0,0,2049,-99,-13,-7,-20,3,51,0,0,0,0,0,0,0,0,0,0,0,
0,0,2044,-104,-17,-7,-18,6,41,0,0,0,0,0,0,0,0,0,0,0,
0,0,2046,-105,-13,-7,-17,7,48,0,0,0,0,0,0,0,0,0,0,0,
0,0,2052,-103,-18,-9,-19,4,45,0,0,0,0,0,0,0,0,0,0,0,
0,0,2035,-97,-15,-6,-18,3,39,0,0,0,0,0,0,0,0,0,0,0,
0,0,2048,-94,-17,-11,-18,5,51,0,0,0,0,0,0,0,0,0,0,0,
0,0,2048,-105,-19,-8,-19,6,41,0,0,0,0,0,0,0,0,0,0,0,
0,0,2048,-99,-14,-7,-17,7,56,0,0,0,0,0,0,0,0,0,0,0,
0,0,2050,-102,-15,-3,-22,8,54,0,0,0,0,0,0,0,0,0,0,0,
0,0,2046,-104,-17,-6,-17,7,46,0,0,0,0,0,0,0,0,0,0,0,
0,0,2044,-97,-18,-7,-19,7,47,0,0,0,0,0,0,0,0,0,0,0,
0,0,2048,-99,-15,-4,-20,8,56,0,0,0,0,0,0,0,0,0,0,0,
0,0,2043,-92,-15,-2,-20,6,57,0,0,0,0,0,0,0,0,0,0,0,
0,0,2049,-105,-16,-4,-18,2,46,0,0,0,0,0,0,0,0,0,0,0,
0,0,2049,-105,-16,-4,-18,2,46,0,0,0,0,0,0,0,0,0,0,0,
0,0,2044,-95,-21,-7,-19,5,44,0,0,0,0,0,0,0,0,0,0,0,
0,0,2044,-105,-17,-6,-19,11,45,0,0,0,0,0,0,0,0,0,0,0,
0,0,2048,-101,-16,-10,-19,2,42,0,0,0,0,0,0,0,0,0,0,0,
0,0,2048,-101,-16,-5,-20,6,50,0,0,0,0,0,0,0,0,0,0,0,
0,0,2048,-104,-8,-6,-18,6,56,0,0,0,0,0,0,0,0,0,0,0,
0,0,2041,-103,-10,-8,-18,3,42,0,0,0,0,0,0,0,0,0,0,0,
0,0,2044,-98,-19,-6,-15,4,47,0,0,0,0,0,0,0,0,0,0,0,
0,0,2044,-98,-19,-3,-16,6,51,0,0,0,0,0,0,0,0,0,0,0,
0,0,2043,-101,-18,-5,-17,4,43,0,0,0,0,0,0,0,0,0,0,0,
0,0,2055,-101,-13,-8,-18,2,55,0,0,0,0,0,0,0,0,0,0,0,
0,0,2049,-107,-16,-7,-18,6,45,0,0,0,0,0,0,0,0,0,0,0,
0,0,2049,-102,-19,-9,-17,6,46,0,0,0,0,0,0,0,0,0,0,0,
0,0,2048,-104,-16,-7,-18,4,45,0,0,0,0,0,0,0,0,0,0,0,
0,0,2041,-101,-22,-7,-18,5,35,0,0,0,0,0,0,0,0,0,0,0,
0,0,2046,-99,-14,-8,-22,7,47,0,0,0,0,0,0,0,0,0,0,0,
0,0,2045,-95,-17,-5,-20,6,51,0,0,0,0,0,0,0,0,0,0,0,
0,0,2042,-102,-17,-6,-17,5,42,0,0,0,0,0,0,0,0,0,0,0,
0,0,2049,-100,-21,-11,-18,5,42,0,0,0,0,0,0,0,0,0,0,0,
0,0,2045,-107,-19,-10,-17,5,34,0,0,0,0,0,0,0,0,0,0,0,
0,0,2052,-100,-12,-11,-20,5,52,0,0,0,0,0,0,0,0,0,0,0,
0,0,2044,-98,-19,-5,-20,6,45,0,0,0,0,0,0,0,0,0,0,0,
0,0,2041,-97,-21,-6,-19,5,40,0,0,0,0,0,0,0,0,0,0,0,
0,0,2040,-100,-21,-7,-19,11,41,0,0,0,0,0,0,0,0,0,0,0,
0,0,2048,-101,-18,-6,-21,8,48,0,0,0,0,0,0,0,0,0,0,0,
0,0,2048,-101,-23,-7,-21,5,39,0,0,0,0,0,0,0,0,0,0,0,
0,0,2044,-93,-21,-7,-19,6,47,0,0,0,0,0,0,0,0,0,0,0,
0,0,2050,-99,-18,-7,-19,3,48,0,0,0,0,0,0,0,0,0,0,0,
0,0,2047,-106,-18,-5,-19,5,41,0,0,0,0,0,0,0,0,0,0,0,
0,0,2046,-101,-15,-7,-18,6,48,0,0,0,0,0,0,0,0,0,0,0,
0,0,2046,-95,-23,-9,-13,3,46,0,0,0,0,0,0,0,0,0,0,0,
0,0,2045,-100,-19,-11,-19,4,37,0,0,0,0,0,0,0,0,0,0,0,
0,0,2051,-104,-15,-5,-19,4,50,0,0,0,0,0,0,0,0,0,0,0,
0,0,2047,-105,-13,-3,-19,6,50,0,0,0,0,0,0,0,0,0,0,0,
0,0,2045,-102,-25,-8,-17,5,35,0,0,0,0,0,0,0,0,0,0,0,
0,0,2050,-103,-17,-6,-16,3,49,0,0,0,0,0,0,0,0,0,0,0,
0,0,2048,-101,-17,-7,-19,6,48,0,0,0,0,0,0,0,0,0,0,0,
0,0,2053,-102,-17,-6,-18,4,52,0,0,0,0,0,0,0,0,0,0,0,
0,0,2043,-95,-12,-5,-20,6,54,0,0,0,0,0,0,0,0,0,0,0,
0,0,2049,-97,-14,-6,-18,6,58,0,0,0,0,0,0,0,0,0,0,0,
0,0,2050,-104,-21,-6,-19,7,45,0,0,0,0,0,0,0,0,0,0,0,
0,0,2045,-107,-15,-3,-18,3,42,0,0,0,0,0,0,0,0,0,0,0,
0,0,2042,-101,-20,-5,-18,5,40,0,0,0,0,0,0,0,0,0,0,0,
0,0,2044,-99,-10,-8,-18,6,52,0,0,0,0,0,0,0,0,0,0,0,
0,0,2048,-104,-12,-5,-16,7,56,0,0,0,0,0,0,0,0,0,0,0,
0,0,2042,-99,-18,-7,-20,6,41,0,0,0,0,0,0,0,0,0,0,0,
0,0,2041,-100,-19,-7,-18,5,39,0,0,0,0,0,0,0,0,0,0,0,
0,0,2041,-104,-18,-5,-18,7,40,0,0,0,0,0,0,0,0,0,0,0,
0,0,2044,-101,-19,-5,-19,4,41,0,0,0,0,0,0,0,0,0,0,0,
0,0,2052,-98,-14,-4,-20,6,60,0,0,0,0,0,0,0,0,0,0,0,
0,0,2049,-103,-15,-6,-17,5,51,0,0,0,0,0,0,0,0,0,0,0,
0,0,2046,-96,-15,-5,-19,6,54,0,0,0,0,0,0,0,0,0,0,0,
0,0,2046,-95,-10,-9,-19,4,54,0,0,0,0,0,0,0,0,0,0,0,
0,0,2047,-98,-18,-8,-18,2,44,0,0,0,0,0,0,0,0,0,0,0,
0,0,2041,-101,-14,-7,-20,5,41,0,0,0,0,0,0,0,0,0,0,0,
0,0,2047,-96,-15,-8,-18,6,53,0,0,0,0,0,0,0,0,0,0,0,
0,0,2046,-97,-20,-8,-17,4,45,0,0,0,0,0,0,0,0,0,0,0,
0,0,2048,-104,-14,-6,-16,7,53,0,0,0,0,0,0,0,0,0,0,0,
0,0,2043,-100,-7,-5,-17,4,55,0,0,0,0,0,0,0,0,0,0,0,
0,0,2048,-97,-19,-6,-19,7,52,0,0,0,0,0,0,0,0,0,0,0,
0,0,2043,-97,-22,-7,-21,3,36,0,0,0,0,0,0,0,0,0,0,0,
0,0,2045,-103,-15,-7,-18,5,44,0,0,0,0,0,0,0,0,0,0,0,
0,0,2047,-103,-21,-8,-17,2,37,0,0,0,0,0,0,0,0,0,0,0,
0,0,2045,-96,-12,-7,-17,8,58,0,0,0,0,0,0,0,0,0,0,0,
0,0,2044,-102,-18,-8,-22,6,37,0,0,0,0,0,0,0,0,0,0,0,
0,0,2053,-100,-14,-1,-23,8,61,0,0,0,0,0,0,0,0,0,0,0,
0,0,2043,-104,-10,-7,-19,3,43,0,0,0,0,0,0,0,0,0,0,0,
0,0,2045,-105,-16,-8,-18,3,38,0,0,0,0,0,0,0,0,0,0,0,
0,0,2048,-96,-13,-4,-21,4,56,0,0,0,0,0,0,0,0,0,0,0,
0,0,2039,-102,-21,-7,-20,7,33,0,0,0,0,0,0,0,0,0,0,0,
0,0,2048,-96,-11,-4,-18,8,65,0,0,0,0,0,0,0,0,0,0,0,
0,0,2044,-100,-12,-8,-21,3,43,0,0,0,0,0,0,0,0,0,0,0,
0,0,2043,-97,-18,-6,-19,5,45,0,0,0,0,0,0,0,0,0,0,0,
0,0,2045,-104,-18,-8,-18,6,40,0,0,0,0,0,0,0,0,0,0,0,
0,0,2039,-100,-11,-6,-16,3,46,0,0,0,0,0,0,0,0,0,0,0,
0,0,2038,-98,-20,-6,-19,5,37,0,0,0,0,0,0,0,0,0,0,0,
0,0,2048,-100,-12,-8,-18,3,51,0,0,0,0,0,0,0,0,0,0,0,
0,0,2046,-100,-16,-7,-16,6,50,0,0,0,0,0,0,0,0,0,0,0,
0,0,2048,-103,-16,-8,-18,5,46,0,0,0,0,0,0,0,0,0,0,0,
0,0,2046,-106,-17,-7,-18,5,40,0,0,0,0,0,0,0,0,0,0,0,
0,0,2051,-102,-19,-7,-21,4,44,0,0,0,0,0,0,0,0,0,0,0,
0,0,2042,-97,-18,-8,-19,7,44,0,0,0,0,0,0,0,0,0,0,0,
0,0,2044,-96,-15,-3,-20,5,52,0,0,0,0,0,0,0,0,0,0,0,
0,0,2051,-94,-12,-7,-18,6,64,0,0,0,0,0,0,0,0,0,0,0,
0,0,2045,-97,-19,-7,-22,5,42,0,0,0,0,0,0,0,0,0,0,0,
0,0,2042,-106,-14,-7,-19,3,36,0,0,0,0,0,0,0,0,0,0,0,
0,0,2048,-104,-17,-2,-18,9,54,0,0,0,0,0,0,0,0,0,0,0,
0,0,2049,-107,-22,-7,-19,5,37,0,0,0,0,0,0,0,0,0,0,0,
0,0,2044,-99,-14,-7,-18,4,47,0,0,0,0,0,0,0,0,0,0,0,
0,0,2044,-100,-27,-9,-19,2,28,0,0,0,0,0,0,0,0,0,0,0,
0,0,2042,-105,-20,-6,-21,8,35,0,0,0,0,0,0,0,0,0,0,0,
0,0,2048,-102,-16,-10,-17,3,44,0,0,0,0,0,0,0,0,0,0,0,
0,0,2054,-100,-14,-9,-17,6,58,0,0,0,0,0,0,0,0,0,0,0,
0,0,2050,-101,-13,-8,-17,5,54,0,0,0,0,0,0,0,0,0,0,0,
0,0,2045,-93,-22,-7,-18,6,48,0,0,0,0,0,0,0,0,0,0,0,
0,0,2041,-97,-19,-7,-18,3,40,0,0,0,0,0,0,0,0,0,0,0,
0,0,2053,-98,-17,-8,-22,5,51,0,0,0,0,0,0,0,0,0,0,0,
0,0,2046,-99,-23,-6,-18,7,44,0,0,0,0,0,0,0,0,0,0,0,
0,0,2041,-97,-16,-5,-15,4,49,0,0,0,0,0,0,0,0,0,0,0,
0,0,2049,-102,-22,-9,-19,5,40,0,0,0,0,0,0,0,0,0,0,0,
0,0,2040,-103,-16,-5,-17,7,43,0,0,0,0,0,0,0,0,0,0,0,
0,0,2043,-106,-19,-9,-20,8,34,0,0,0,0,0,0,0,0,0,0,0,
0,0,2041,-96,-19,-4,-20,2,41,0,0,0,0,0,0,0,0,0,0,0,
0,0,2048,-103,-18,-4,-20,6,47,0,0,0,0,0,0,0,0,0,0,0,
0,0,2047,-100,-17,-8,-19,2,42,0,0,0,0,0,0,0,0,0,0,0,
0,0,2042,-98,-18,-2,-18,8,51,0,0,0,0,0,0,0,0,0,0,0,
0,0,2044,-99,-20,-8,-17,4,41,0,0,0,0,0,0,0,0,0,0,0,
0,0,2044,-99,-20,-8,-17,4,41,0,0,0,0,0,0,0,0,0,0,0,
0,0,2047,-100,-16,-4,-17,4,51,0,0,0,0,0,0,0,0,0,0,0,
0,0,2044,-99,-23,-6,-20,6,39,0,0,0,0,0,0,0,0,0,0,0,
0,0,2044,-104,-17,-5,-23,6,38,0,0,0,0,0,0,0,0,0,0,0,
0,0,2045,-99,-16,-10,-15,5,47,0,0,0,0,0,0,0,0,0,0,0,
0,0,2045,-97,-20,-7,-18,8,48,0,0,0,0,0,0,0,0,0,0,0,
0,0,2045,-97,-20,-8,-19,5,43,0,0,0,0,0,0,0,0,0,0,0,
0,0,2042,-99,-19,-7,-19,4,39,0,0,0,0,0,0,0,0,0,0,0,
0,0,2045,-104,-23,-5,-18,3,35,0,0,0,0,0,0,0,0,0,0,0,
0,0,2044,-99,-20,-6,-17,8,47,0,0,0,0,0,0,0,0,0,0,0,
0,0,2044,-99,-20,-3,-18,7,48,0,0,0,0,0,0,0,0,0,0,0,
0,0,2047,-99,-12,-5,-19,7,56,0,0,0,0,0,0,0,0,0,0,0,
0,0,2053,-101,-10,-7,-18,3,58,0,0,0,0,0,0,0,0,0,0,0,
0,0,2044,-96,-18,-5,-18,7,51,0,0,0,0,0,0,0,0,0,0,0,
0,0,2048,-97,-15,-4,-21,4,53,0,0,0,0,0,0,0,0,0,0,0,
0,0,2046,-101,-19,-9,-16,6,44,0,0,0,0,0,0,0,0,0,0,0,
0,0,2046,-98,-14,-7,-17,7,54,0,0,0,0,0,0,0,0,0,0,0,
0,0,2045,-106,-16,-8,-17,7,42,0,0,0,0,0,0,0,0,0,0,0,
0,0,2045,-106,-16,-8,-17,7,42,0,0,0,0,0,0,0,0,0,0,0,
0,0,2054,-98,-22,-9,-20,4,47,0,0,0,0,0,0,0,0,0,0,0,
0,0,2046,-107,-13,-6,-18,4,43,0,0,0,0,0,0,0,0,0,0,0,
0,0,2044,-105,-18,-9,-15,6,40,0,0,0,0,0,0,0,0,0,0,0,
0,0,2048,-98,-15,-8,-17,2,50,0,0,0,0,0,0,0,0,0,0,0,
0,0,2050,-104,-15,-6,-17,4,50,0,0,0,0,0,0,0,0,0,0,0,
0,0,2045,-102,-8,-6,-21,5,50,0,0,0,0,0,0,0,0,0,0,0,
0,0,2037,-97,-16,-8,-20,3,36,0,0,0,0,0,0,0,0,0,0,0,
0,0,2037,-97,-16,-8,-20,3,36,0,0,0,0,0,0,0,0,0,0,0,
0,0,2044,-99,-26,-5,-17,7,41,0,0,0,0,0,0,0,0,0,0,0,
0,0,2048,-112,-12,-8,-20,7,41,0,0,0,0,0,0,0,0,0,0,0,
0,0,2037,-107,-16,-4,-19,3,31,0,0,0,0,0,0,0,0,0,0,0,
0,0,2047,-99,-21,-5,-19,6,46,0,0,0,0,0,0,0,0,0,0,0,
0,0,2051,-100,-25,-9,-18,4,41,0,0,0,0,0,0,0,0,0,0,0,
0,0,2044,-97,-17,-7,-19,8,49,0,0,0,0,0,0,0,0,0,0,0,
0,0,2050,-105,-15,-5,-18,5,50,0,0,0,0,0,0,0,0,0,0,0,
0,0,2051,-100,-18,-7,-16,4,52,0,0,0,0,0,0,0,0,0,0,0,
0,0,2046,-98,-13,-7,-16,7,56,0,0,0,0,0,0,0,0,0,0,0,
0,0,2043,-98,-13,-4,-19,8,54,0,0,0,0,0,0,0,0,0,0,0,
0,0,2047,-100,-16,-5,-18,7,52,0,0,0,0,0,0,0,0,0,0,0,
0,0,2045,-99,-20,-8,-17,4,42,0,0,0,0,0,0,0,0,0,0,0,
0,0,2049,-108,-21,-6,-19,5,38,0,0,0,0,0,0,0,0,0,0,0,
0,0,2049,-105,-12,-9,-19,5,47,0,0,0,0,0,0,0,0,0,0,0,
0,0,2052,-97,-21,-6,-18,6,54,0,0,0,0,0,0,0,0,0,0,0,
0,0,2048,-107,-15,-6,-16,5,47,0,0,0,0,0,0,0,0,0,0,0,
0,0,2046,-91,-17,-6,-18,5,56,0,0,0,0,0,0,0,0,0,0,0,
0,0,2050,-96,-20,-6,-20,6,52,0,0,0,0,0,0,0,0,0,0,0,
0,0,2039,-100,-23,-5,-19,5,34,0,0,0,0,0,0,0,0,0,0,0,
0,0,2051,-97,-19,-5,-18,4,54,0,0,0,0,0,0,0,0,0,0,0,
0,0,2043,-99,-13,-5,-18,6,51,0,0,0,0,0,0,0,0,0,0,0,
0,0,2044,-103,-19,-7,-17,9,44,0,0,0,0,0,0,0,0,0,0,0,
0,0,2043,-92,-14,-7,-18,4,53,0,0,0,0,0,0,0,0,0,0,0,
0,0,2043,-100,-18,-6,-18,7,45,0,0,0,0,0,0,0,0,0,0,0,
0,0,2045,-92,-16,-9,-19,11,57,0,0,0,0,0,0,0,0,0,0,0,
0,0,2039,-98,-12,-8,-16,5,47,0,0,0,0,0,0,0,0,0,0,0,
0,0,2045,-98,-14,-6,-19,2,47,0,0,0,0,0,0,0,0,0,0,0,
0,0,2044,-105,-18,-8,-17,6,39,0,0,0,0,0,0,0,0,0,0,0,
0,0,2045,-97,-16,-7,-18,7,51,0,0,0,0,0,0,0,0,0,0,0,
0,0,2044,-95,-19,-4,-17,7,53,0,0,0,0,0,0,0,0,0,0,0,
0,0,2043,-102,-15,-7,-15,6,47,0,0,0,0,0,0,0,0,0,0,0,
0,0,2046,-95,-19,-8,-19,2,44,0,0,0,0,0,0,0,0,0,0,0,
0,0,2050,-100,-15,-7,-19,6,53,0,0,0,0,0,0,0,0,0,0,0,
0,0,2043,-99,-15,-8,-17,7,48,0,0,0,0,0,0,0,0,0,0,0,
0,0,2050,-105,-22,-7,-18,6,42,0,0,0,0,0,0,0,0,0,0,0,
0,0,2051,-99,-18,-7,-16,4,53,0,0,0,0,0,0,0,0,0,0,0,
0,0,2046,-110,-21,-8,-17,6,33,0,0,0,0,0,0,0,0,0,0,0,
0,0,2049,-101,-13,-9,-21,7,50,0,0,0,0,0,0,0,0,0,0,0,
0,0,2041,-100,-15,-8,-18,5,42,0,0,0,0,0,0,0,0,0,0,0,
0,0,2051,-101,-20,-10,-19,4,43,0,0,0,0,0,0,0,0,0,0,0,
0,0,2050,-100,-15,-4,-17,5,57,0,0,0,0,0,0,0,0,0,0,0,
0,0,2052,-96,-20,-6,-16,5,57,0,0,0,0,0,0,0,0,0,0,0,
0,0,2048,-106,-17,-9,-18,4,40,0,0,0,0,0,0,0,0,0,0,0,
0,0,2043,-108,-21,-8,-17,3,29,0,0,0,0,0,0,0,0,0,0,0,
0,0,2043,-104,-11,-9,-21,8,43,0,0,0,0,0,0,0,0,0,0,0,
0,0,2045,-96,-19,-5,-17,5,50,0,0,0,0,0,0,0,0,0,0,0,
0,0,2038,-99,-19,-8,-19,6,36,0,0,0,0,0,0,0,0,0,0,0,
0,0,2045,-95,-18,-6,-18,7,52,0,0,0,0,0,0,0,0,0,0,0,
0,0,2043,-100,-18,-7,-18,7,44,0,0,0,0,0,0,0,0,0,0,0,
0,0,2038,-97,-12,-8,-19,4,43,0,0,0,0,0,0,0,0,0,0,0,
0,0,2052,-100,-14,-5,-19,6,58,0,0,0,0,0,0,0,0,0,0,0,
0,0,2043,-102,-14,-5,-17,2,44,0,0,0,0,0,0,0,0,0,0,0,
0,0,2047,-103,-11,-5,-19,5,51,0,0,0,0,0,0,0,0,0,0,0,
0,0,2045,-97,-27,-4,-19,5,40,0,0,0,0,0,0,0,0,0,0,0,
0,0,2045,-96,-13,-5,-19,5,54,0,0,0,0,0,0,0,0,0,0,0,
0,0,2041,-101,-22,-7,-19,4,33,0,0,0,0,0,0,0,0,0,0,0,
0,0,2042,-99,-13,-7,-18,8,50,0,0,0,0,0,0,0,0,0,0,0,
0,0,2045,-104,-15,-5,-19,5,44,0,0,0,0,0,0,0,0,0,0,0,
0,0,2052,-107,-17,-5,-19,5,47,0,0,0,0,0,0,0,0,0,0,0,
0,0,2038,-108,-24,-9,-22,2,14,0,0,0,0,0,0,0,0,0,0,0,
0,0,2047,-98,-20,-11,-17,5,43,0,0,0,0,0,0,0,0,0,0,0,
0,0,2047,-96,-24,-9,-19,4,40,0,0,0,0,0,0,0,0,0,0,0,
0,0,2048,-97,-15,-4,-20,2,52,0,0,0,0,0,0,0,0,0,0,0,
0,0,2049,-104,-18,-5,-22,4,42,0,0,0,0,0,0,0,0,0,0,0,
0,0,2051,-98,-22,-5,-15,6,55,0,0,0,0,0,0,0,0,0,0,0,
0,0,2043,-91,-23,-10,-20,3,39,0,0,0,0,0,0,0,0,0,0,0,
0,0,2050,-99,-21,-6,-19,2,45,0,0,0,0,0,0,0,0,0,0,0,
0,0,2045,-102,-16,-5,-16,10,53,0,0,0,0,0,0,0,0,0,0,0,
0,0,2051,-97,-17,-8,-15,5,57,0,0,0,0,0,0,0,0,0,0,0,
0,0,2054,-96,-21,-8,-23,6,50,0,0,0,0,0,0,0,0,0,0,0,
0,0,2042,-100,-13,-9,-19,6,44,0,0,0,0,0,0,0,0,0,0,0,
0,0,2047,-99,-20,-4,-20,5,46,0,0,0,0,0,0,0,0,0,0,0,
0,0,2049,-96,-23,-7,-18,6,49,0,0,0,0,0,0,0,0,0,0,0,
0,0,2047,-99,-15,-6,-18,5,51,0,0,0,0,0,0,0,0,0,0,0,
0,0,2047,-100,-16,-5,-17,7,53,0,0,0,0,0,0,0,0,0,0,0,
0,0,2044,-96,-20,-9,-21,5,40,0,0,0,0,0,0,0,0,0,0,0,
0,0,2043,-93,-20,-6,-16,7,52,0,0,0,0,0,0,0,0,0,0,0,
0,0,2041,-101,-21,-6,-20,4,34,0,0,0,0,0,0,0,0,0,0,0,
0,0,2045,-106,-16,-8,-18,6,40,0,0,0,0,0,0,0,0,0,0,0,
0,0,2045,-93,-16,-2,-21,9,59,0,0,0,0,0,0,0,0,0,0,0,
0,0,2048,-101,-7,-8,-18,5,57,0,0,0,0,0,0,0,0,0,0,0,
0,0,2044,-101,-20,-6,-18,7,43,0,0,0,0,0,0,0,0,0,0,0,
0,0,2041,-102,-24,-7,-18,8,35,0,0,0,0,0,0,0,0,0,0,0,
0,0,2041,-102,-24,-7,-18,8,35,0,0,0,0,0,0,0,0,0,0,0,
0,0,2049,-102,-11,-5,-18,7,58,0,0,0,0,0,0,0,0,0,0,0,
0,0,2047,-102,-16,-6,-19,4,45,0,0,0,0,0,0,0,0,0,0,0,
0,0,2045,-99,-15,-12,-18,6,44,0,0,0,0,0,0,0,0,0,0,0,
0,0,2045,-99,-15,-12,-18,6,44,0,0,0,0,0,0,0,0,0,0,0,
0,0,2051,-95,-12,-8,-18,3,59,0,0,0,0,0,0,0,0,0,0,0,
0,0,2045,-101,-17,-7,-20,5,42,0,0,0,0,0,0,0,0,0,0,0,
0,0,2050,-99,-20,-3,-15,5,56,0,0,0,0,0,0,0,0,0,0,0,
0,0,2047,-102,-25,-7,-16,7,41,0,0,0,0,0,0,0,0,0,0,0,
0,0,2047,-91,-17,-6,-17,5,58,0,0,0,0,0,0,0,0,0,0,0,
0,0,2041,-94,-12,-6,-19,5,52,0,0,0,0,0,0,0,0,0,0,0,
0,0,2046,-103,-20,-7,-20,5,38,0,0,0,0,0,0,0,0,0,0,0,
0,0,2044,-103,-14,-5,-19,6,46,0,0,0,0,0,0,0,0,0,0,0,
0,0,2051,-99,-16,-5,-18,6,57,0,0,0,0,0,0,0,0,0,0,0,
0,0,2047,-99,-11,-8,-21,3,48,0,0,0,0,0,0,0,0,0,0,0,
0,0,2050,-100,-26,-7,-23,7,39,0,0,0,0,0,0,0,0,0,0,0,
0,0,2043,-106,-19,-8,-17,8,38,0,0,0,0,0,0,0,0,0,0,0,
0,0,2038,-104,-14,-7,-21,5,34,0,0,0,0,0,0,0,0,0,0,0,
0,0,2054,-100,-17,-7,-21,8,55,0,0,0,0,0,0,0,0,0,0,0,
0,0,2051,-100,-17,-7,-18,8,55,0,0,0,0,0,0,0,0,0,0,0,
0,0,2048,-105,-19,-6,-18,5,43,0,0,0,0,0,0,0,0,0,0,0,
0,0,2045,-100,-21,-8,-17,8,44,0,0,0,0,0,0,0,0,0,0,0,
0,0,2049,-104,-17,-5,-20,6,47,0,0,0,0,0,0,0,0,0,0,0,
0,0,2046,-102,-19,-8,-18,8,44,0,0,0,0,0,0,0,0,0,0,0,
0,0,2041,-98,-15,-8,-21,8,44,0,0,0,0,0,0,0,0,0,0,0,
0,0,2044,-98,-11,-7,-19,7,53,0,0,0,0,0,0,0,0,0,0,0,
0,0,2050,-98,-17,-7,-17,4,53,0,0,0,0,0,0,0,0,0,0,0,
0,0,2048,-101,-19,-4,-19,10,53,0,0,0,0,0,0,0,0,0,0,0,
0,0,2037,-105,-16,-6,-18,6,35,0,0,0,0,0,0,0,0,0,0,0,
0,0,2037,-105,-16,-7,-20,5,31,0,0,0,0,0,0,0,0,0,0,0,
0,0,2045,-94,-18,-9,-18,4,47,0,0,0,0,0,0,0,0,0,0,0,
0,0,2042,-95,-27,-8,-17,5,37,0,0,0,0,0,0,0,0,0,0,0,
0,0,2046,-97,-18,-2,-19,4,51,0,0,0,0,0,0,0,0,0,0,0,
0,0,2045,-94,-22,-8,-19,6,45,0,0,0,0,0,0,0,0,0,0,0,
0,0,2037,-100,-21,-7,-22,8,32,0,0,0,0,0,0,0,0,0,0,0,
0,0,2048,-100,-29,-8,-19,5,35,0,0,0,0,0,0,0,0,0,0,0,
0,0,2050,-97,-19,-5,-17,7,57,0,0,0,0,0,0,0,0,0,0,0,
0,0,2043,-107,-16,-6,-23,5,33,0,0,0,0,0,0,0,0,0,0,0,
0,0,2045,-106,-16,-6,-20,5,39,0,0,0,0,0,0,0,0,0,0,0,
0,0,2045,-94,-17,-8,-17,3,49,0,0,0,0,0,0,0,0,0,0,0,
0,0,2049,-95,-15,-10,-20,4,51,0,0,0,0,0,0,0,0,0,0,0,
0,0,2041,-90,-17,-5,-18,6,54,0,0,0,0,0,0,0,0,0,0,0,
0,0,2049,-100,-15,-8,-18,4,50,0,0,0,0,0,0,0,0,0,0,0,
0,0,2047,-96,-16,-8,-18,7,53,0,0,0,0,0,0,0,0,0,0,0,
0,0,2043,-101,-16,-5,-19,6,45,0,0,0,0,0,0,0,0,0,0,0,
0,0,2047,-102,-18,-7,-15,6,48,0,0,0,0,0,0,0,0,0,0,0,
0,0,2046,-95,-17,-7,-19,6,51,0,0,0,0,0,0,0,0,0,0,0,
0,0,2045,-103,-21,-8,-18,2,34,0,0,0,0,0,0,0,0,0,0,0,
0,0,2044,-101,-8,-8,-20,7,51,0,0,0,0,0,0,0,0,0,0,0,
0,0,2042,-101,-16,-6,-19,5,42,0,0,0,0,0,0,0,0,0,0,0,
0,0,2037,-101,-19,-9,-20,8,33,0,0,0,0,0,0,0,0,0,0,0,
0,0,2048,-96,-25,-5,-20,6,46,0,0,0,0,0,0,0,0,0,0,0,
0,0,2044,-101,-20,-7,-16,7,44,0,0,0,0,0,0,0,0,0,0,0,
0,0,2046,-102,-13,-5,-16,3,50,0,0,0,0,0,0,0,0,0,0,0,
0,0,2041,-101,-16,-5,-16,3,43,0,0,0,0,0,0,0,0,0,0,0,
0,0,2045,-100,-18,-7,-18,8,47,0,0,0,0,0,0,0,0,0,0,0,
0,0,2046,-96,-10,-8,-18,2,53,0,0,0,0,0,0,0,0,0,0,0,
0,0,2048,-98,-16,-6,-19,6,53,0,0,0,0,0,0,0,0,0,0,0,
0,0,2047,-96,-17,-8,-19,4,48,0,0,0,0,0,0,0,0,0,0,0,
0,0,2038,-103,-29,-10,-20,3,16,0,0,0,0,0,0,0,0,0,0,0,
0,0,2044,-95,-27,-9,-19,3,34,0,0,0,0,0,0,0,0,0,0,0,
0,0,2049,-103,-18,-5,-17,6,50,0,0,0,0,0,0,0,0,0,0,0,
0,0,2048,-100,-14,-10,-20,7,49,0,0,0,0,0,0,0,0,0,0,0,
0,0,2048,-102,-18,-7,-20,7,46,0,0,0,0,0,0,0,0,0,0,0,
0,0,2045,-96,-16,-7,-20,8,51,0,0,0,0,0,0,0,0,0,0,0,
0,0,2050,-97,-17,-4,-19,4,55,0,0,0,0,0,0,0,0,0,0,0,
0,0,2050,-93,-10,-5,-23,4,61,0,0,0,0,0,0,0,0,0,0,0,
0,0,2039,-94,-18,-7,-22,5,40,0,0,0,0,0,0,0,0,0,0,0,
0,0,2044,-100,-22,-7,-22,5,35,0,0,0,0,0,0,0,0,0,0,0,
0,0,2049,-93,-14,-5,-17,4,62,0,0,0,0,0,0,0,0,0,0,0,
0,0,2044,-100,-18,-5,-19,6,45,0,0,0,0,0,0,0,0,0,0,0,
0,0,2044,-98,-15,-5,-20,7,50,0,0,0,0,0,0,0,0,0,0,0,
0,0,2042,-95,-11,-8,-21,5,49,0,0,0,0,0,0,0,0,0,0,0,
0,0,2051,-93,-13,-7,-17,7,66,0,0,0,0,0,0,0,0,0,0,0,
0,0,2044,-98,-15,-7,-18,8,51,0,0,0,0,0,0,0,0,0,0,0,
0,0,2047,-100,-24,-7,-18,5,40,0,0,0,0,0,0,0,0,0,0,0,
0,0,2043,-98,-14,-9,-20,6,45,0,0,0,0,0,0,0,0,0,0,0,
0,0,2049,-105,-19,-5,-19,7,46,0,0,0,0,0,0,0,0,0,0,0,
0,0,2043,-97,-18,-6,-21,6,44,0,0,0,0,0,0,0,0,0,0,0,
0,0,2051,-102,-18,-6,-15,4,52,0,0,0,0,0,0,0,0,0,0,0,
0,0,2047,-96,-14,-7,-17,3,53,0,0,0,0,0,0,0,0,0,0,0,
0,0,2044,-90,-9,-8,-20,6,60,0,0,0,0,0,0,0,0,0,0,0,
0,0,2050,-100,-22,-10,-20,5,41,0,0,0,0,0,0,0,0,0,0,0,
0,0,2044,-102,-18,-6,-18,5,42,0,0,0,0,0,0,0,0,0,0,0,
0,0,2046,-97,-20,-6,-16,6,50,0,0,0,0,0,0,0,0,0,0,0,
0,0,2048,-106,-17,-8,-19,6,42,0,0,0,0,0,0,0,0,0,0,0,
0,0,2046,-99,-15,-6,-16,8,55,0,0,0,0,0,0,0,0,0,0,0,
0,0,2043,-107,-11,-7,-16,2,41,0,0,0,0,0,0,0,0,0,0,0,
0,0,2047,-100,-18,-7,-19,8,48,0,0,0,0,0,0,0,0,0,0,0,
0,0,2047,-94,-14,-8,-18,4,54,0,0,0,0,0,0,0,0,0,0,0,
0,0,2045,-95,-27,-9,-21,1,31,0,0,0,0,0,0,0,0,0,0,0,
0,0,2044,-101,-20,-10,-17,5,38,0,0,0,0,0,0,0,0,0,0,0,
0,0,2045,-99,-14,-6,-18,4,49,0,0,0,0,0,0,0,0,0,0,0,
0,0,2044,-97,-22,-8,-21,4,37,0,0,0,0,0,0,0,0,0,0,0,
0,0,2046,-99,-12,-6,-18,9,57,0,0,0,0,0,0,0,0,0,0,0,
0,0,2050,-93,-16,-6,-20,5,58,0,0,0,0,0,0,0,0,0,0,0,
0,0,2047,-101,-23,-5,-21,8,42,0,0,0,0,0,0,0,0,0,0,0,
0,0,2049,-91,-19,-6,-19,3,55,0,0,0,0,0,0,0,0,0,0,0,
0,0,2043,-100,-20,-3,-19,3,41,0,0,0,0,0,0,0,0,0,0,0,
0,0,2042,-91,-19,-4,-17,4,52,0,0,0,0,0,0,0,0,0,0,0,
0,0,2050,-99,-21,-5,-19,5,49,0,0,0,0,0,0,0,0,0,0,0,
0,0,2046,-102,-16,-4,-20,7,48,0,0,0,0,0,0,0,0,0,0,0,
0,0,2050,-106,-14,-11,-17,3,43,0,0,0,0,0,0,0,0,0,0,0,
0,0,2045,-105,-18,-7,-19,4,37,0,0,0,0,0,0,0,0,0,0,0,
0,0,2047,-96,-18,-8,-17,8,53,0,0,0,0,0,0,0,0,0,0,0,
0,0,2043,-100,-10,-4,-19,4,51,0,0,0,0,0,0,0,0,0,0,0,
0,0,2044,-104,-9,-6,-19,6,49,0,0,0,0,0,0,0,0,0,0,0,
0,0,2049,-102,-20,-3,-15,6,53,0,0,0,0,0,0,0,0,0,0,0,
0,0,2042,-106,-15,-12,-19,3,30,0,0,0,0,0,0,0,0,0,0,0,
0,0,2042,-106,-15,-12,-19,3,30,0,0,0,0,0,0,0,0,0,0,0,
0,0,2050,-97,-21,-7,-23,5,45,0,0,0,0,0,0,0,0,0,0,0,
0,0,2048,-105,-20,-4,-18,4,43,0,0,0,0,0,0,0,0,0,0,0,
0,0,2038,-101,-18,-6,-17,6,39,0,0,0,0,0,0,0,0,0,0,0,
0,0,2038,-101,-18,-6,-17,6,39,0,0,0,0,0,0,0,0,0,0,0,
0,0,2047,-102,-19,-7,-17,3,42,0,0,0,0,0,0,0,0,0,0,0,
0,0,2046,-94,-20,-8,-21,3,43,0,0,0,0,0,0,0,0,0,0,0,
0,0,2044,-101,-17,-5,-21,8,45,0,0,0,0,0,0,0,0,0,0,0,
0,0,2044,-101,-17,-3,-19,7,48,0,0,0,0,0,0,0,0,0,0,0,
0,0,2044,-99,-19,-9,-18,3,39,0,0,0,0,0,0,0,0,0,0,0,
0,0,2041,-103,-16,-9,-18,7,39,0,0,0,0,0,0,0,0,0,0,0,
0,0,2048,-94,-20,-8,-20,1,45,0,0,0,0,0,0,0,0,0,0,0,
0,0,2049,-97,-20,-9,-18,4,47,0,0,0,0,0,0,0,0,0,0,0,
0,0,2043,-106,-12,-8,-18,4,40,0,0,0,0,0,0,0,0,0,0,0,
0,0,2051,-97,-18,-8,-22,4,48,0,0,0,0,0,0,0,0,0,0,0,
0,0,2043,-99,-15,-10,-20,4,40,0,0,0,0,0,0,0,0,0,0,0,
0,0,2047,-92,-17,-5,-20,7,57,0,0,0,0,0,0,0,0,0,0,0,
0,0,2043,-103,-20,-7,-19,6,37,0,0,0,0,0,0,0,0,0,0,0,
0,0,2042,-108,-17,-8,-20,6,32,0,0,0,0,0,0,0,0,0,0,0,
0,0,2041,-100,-21,-8,-14,2,37,0,0,0,0,0,0,0,0,0,0,0,
0,0,2046,-103,-11,-5,-19,6,51,0,0,0,0,0,0,0,0,0,0,0,
0,0,2041,-89,-12,-7,-21,3,52,0,0,0,0,0,0,0,0,0,0,0,
0,0,2048,-104,-13,-5,-21,4,47,0,0,0,0,0,0,0,0,0,0,0,
0,0,2041,-101,-15,-8,-17,6,43,0,0,0,0,0,0,0,0,0,0,0,
0,0,2042,-104,-25,-5,-21,6,30,0,0,0,0,0,0,0,0,0,0,0,
0,0,2047,-101,-22,-8,-18,4,39,0,0,0,0,0,0,0,0,0,0,0,
0,0,2044,-102,-14,-7,-14,6,50,0,0,0,0,0,0,0,0,0,0,0,
0,0,2046,-94,-22,-7,-15,5,50,0,0,0,0,0,0,0,0,0,0,0,
0,0,2045,-87,-15,-5,-19,5,61,0,0,0,0,0,0,0,0,0,0,0,
0,0,2043,-91,-17,-7,-19,6,52,0,0,0,0,0,0,0,0,0,0,0,
0,0,2043,-102,-14,-7,-16,7,48,0,0,0,0,0,0,0,0,0,0,0,
0,0,2046,-99,-20,-4,-20,4,44,0,0,0,0,0,0,0,0,0,0,0,
0,0,2045,-97,-15,-7,-18,4,49,0,0,0,0,0,0,0,0,0,0,0,
0,0,2046,-99,-22,-7,-17,4,42,0,0,0,0,0,0,0,0,0,0,0,
0,0,2046,-103,-19,-4,-17,11,51,0,0,0,0,0,0,0,0,0,0,0,
0,0,2041,-99,-8,-9,-20,5,47,0,0,0,0,0,0,0,0,0,0,0,
0,0,2047,-99,-17,-7,-17,4,48,0,0,0,0,0,0,0,0,0,0,0,
0,0,2045,-100,-12,-7,-16,7,54,0,0,0,0,0,0,0,0,0,0,0,
0,0,2047,-103,-17,-9,-19,2,38,0,0,0,0,0,0,0,0,0,0,0,
0,0,2043,-103,-21,-3,-19,5,39,0,0,0,0,0,0,0,0,0,0,0,
0,0,2046,-97,-18,-6,-20,7,49,0,0,0,0,0,0,0,0,0,0,0,
0,0,2046,-100,-17,-7,-21,8,46,0,0,0,0,0,0,0,0,0,0,0,
0,0,2044,-93,-11,-4,-19,7,61,0,0,0,0,0,0,0,0,0,0,0,
0,0,2045,-100,-18,-7,-19,3,41,0,0,0,0,0,0,0,0,0,0,0,
0,0,2046,-99,-16,-7,-17,5,49,0,0,0,0,0,0,0,0,0,0,0,
0,0,2046,-103,-18,-8,-19,6,41,0,0,0,0,0,0,0,0,0,0,0,
0,0,2048,-100,-13,-6,-17,8,58,0,0,0,0,0,0,0,0,0,0,0,
0,0,2046,-99,-19,-5,-18,6,48,0,0,0,0,0,0,0,0,0,0,0,
0,0,2047,-101,-16,-6,-18,4,47,0,0,0,0,0,0,0,0,0,0,0,
0,0,2043,-98,-19,-10,-18,6,41,0,0,0,0,0,0,0,0,0,0,0,
0,0,2044,-100,-20,-7,-21,6,39,0,0,0,0,0,0,0,0,0,0,0,
0,0,2040,-98,-14,-6,-16,1,44,0,0,0,0,0,0,0,0,0,0,0,
0,0,2048,-97,-10,-6,-19,8,62,0,0,0,0,0,0,0,0,0,0,0,
0,0,2047,-94,-16,-8,-17,5,54,0,0,0,0,0,0,0,0,0,0,0,
0,0,2042,-99,-14,-6,-19,8,49,0,0,0,0,0,0,0,0,0,0,0,
0,0,2051,-96,-20,-6,-18,8,57,0,0,0,0,0,0,0,0,0,0,0,
0,0,2044,-101,-15,-10,-17,5,43,0,0,0,0,0,0,0,0,0,0,0,
0,0,2043,-99,-20,-6,-19,7,43,0,0,0,0,0,0,0,0,0,0,0,
0,0,2044,-101,-17,-9,-16,7,45,0,0,0,0,0,0,0,0,0,0,0,
0,0,2044,-100,-14,-7,-17,4,47,0,0,0,0,0,0,0,0,0,0,0,
0,0,2046,-100,-14,-6,-19,6,50,0,0,0,0,0,0,0,0,0,0,0,
0,0,2045,-99,-16,-7,-18,6,48,0,0,0,0,0,0,0,0,0,0,0,
0,0,2039,-96,-19,-9,-18,7,41,0,0,0,0,0,0,0,0,0,0,0,
0,0,2043,-102,-13,-5,-17,6,49,0,0,0,0,0,0,0,0,0,0,0,
0,0,2049,-102,-17,-8,-20,5,45,0,0,0,0,0,0,0,0,0,0,0,
0,0,2050,-105,-22,-9,-18,8,42,0,0,0,0,0,0,0,0,0,0,0,
0,0,2047,-103,-22,-8,-21,4,34,0,0,0,0,0,0,0,0,0,0,0,
0,0,2046,-99,-19,-7,-19,7,46,0,0,0,0,0,0,0,0,0,0,0,
0,0,2044,-97,-22,-9,-18,1,36,0,0,0,0,0,0,0,0,0,0,0,
0,0,2045,-102,-20,-6,-18,6,42,0,0,0,0,0,0,0,0,0,0,0,
0,0,2044,-100,-16,-6,-18,6,47,0,0,0,0,0,0,0,0,0,0,0,
0,0,2050,-104,-13,-4,-21,5,51,0,0,0,0,0,0,0,0,0,0,0,
0,0,2048,-100,-19,-5,-18,5,49,0,0,0,0,0,0,0,0,0,0,0,
0,0,2044,-100,-18,-7,-17,1,40,0,0,0,0,0,0,0,0,0,0,0,
0,0,2049,-94,-16,-6,-19,8,60,0,0,0,0,0,0,0,0,0,0,0,
0,0,2041,-98,-14,-4,-20,9,51,0,0,0,0,0,0,0,0,0,0,0,
0,0,2050,-104,-17,-6,-19,4,46,0,0,0,0,0,0,0,0,0,0,0,
0,0,2042,-101,-20,-9,-15,8,42,0,0,0,0,0,0,0,0,0,0,0,
0,0,2048,-88,-24,-9,-19,9,55,0,0,0,0,0,0,0,0,0,0,0,
0,0,2050,-93,-13,-9,-19,9,63,0,0,0,0,0,0,0,0,0,0,0,
0,0,2047,-101,-20,-7,-17,8,47,0,0,0,0,0,0,0,0,0,0,0,
0,0,2044,-99,-17,-9,-17,4,43,0,0,0,0,0,0,0,0,0,0,0,
0,0,2041,-100,-19,-5,-16,8,46,0,0,0,0,0,0,0,0,0,0,0,
0,0,2046,-99,-20,-6,-18,7,47,0,0,0,0,0,0,0,0,0,0,0,
0,0,2049,-101,-19,-4,-17,8,54,0,0,0,0,0,0,0,0,0,0,0,
0,0,2044,-101,-20,-8,-18,6,40,0,0,0,0,0,0,0,0,0,0,0,
0,0,2042,-103,-22,-8,-18,6,34,0,0,0,0,0,0,0,0,0,0,0,
0,0,2043,-103,-13,-10,-19,1,36,0,0,0,0,0,0,0,0,0,0,0,
0,0,2045,-93,-24,-10,-19,6,42,0,0,0,0,0,0,0,0,0,0,0,
0,0,2040,-96,-20,-3,-19,10,49,0,0,0,0,0,0,0,0,0,0,0,
0,0,2043,-98,-17,-7,-17,7,48,0,0,0,0,0,0,0,0,0,0,0,
0,0,2051,-98,-18,-7,-18,8,56,0,0,0,0,0,0,0,0,0,0,0,
0,0,2045,-96,-11,-6,-17,7,59,0,0,0,0,0,0,0,0,0,0,0,
0,0,2049,-100,-21,-10,-17,6,45,0,0,0,0,0,0,0,0,0,0,0,
0,0,2044,-108,-16,-5,-20,4,36,0,0,0,0,0,0,0,0,0,0,0,
0,0,2042,-97,-16,-5,-14,9,56,0,0,0,0,0,0,0,0,0,0,0,
0,0,2042,-100,-17,-8,-17,9,46,0,0,0,0,0,0,0,0,0,0,0,
0,0,2044,-97,-15,-9,-18,3,45,0,0,0,0,0,0,0,0,0,0,0,
0,0,2049,-106,-15,-4,-20,6,48,0,0,0,0,0,0,0,0,0,0,0,
0,0,2045,-99,-23,-4,-18,7,45,0,0,0,0,0,0,0,0,0,0,0,
0,0,2046,-109,-16,-4,-20,6,40,0,0,0,0,0,0,0,0,0,0,0,
0,0,2049,-100,-9,-7,-20,4,55,0,0,0,0,0,0,0,0,0,0,0,
0,0,2041,-97,-17,-7,-17,7,47,0,0,0,0,0,0,0,0,0,0,0,
0,0,2044,-103,-14,-5,-16,5,48,0,0,0,0,0,0,0,0,0,0,0,
0,0,2052,-103,-21,-4,-13,7,56,0,0,0,0,0,0,0,0,0,0,0,
0,0,2041,-103,-15,-7,-19,7,41,0,0,0,0,0,0,0,0,0,0,0,
0,0,2049,-105,-21,-6,-21,7,41,0,0,0,0,0,0,0,0,0,0,0,
0,0,2046,-102,-18,-7,-17,3,42,0,0,0,0,0,0,0,0,0,0,0,
0,0,2049,-99,-9,-8,-20,7,58,0,0,0,0,0,0,0,0,0,0,0,
0,0,2044,-104,-16,-9,-15,4,41,0,0,0,0,0,0,0,0,0,0,0,
0,0,2044,-104,-16,-9,-15,4,41,0,0,0,0,0,0,0,0,0,0,0,
0,0,2044,-104,-22,-5,-19,5,36,0,0,0,0,0,0,0,0,0,0,0,
0,0,2046,-100,-19,-3,-16,9,54,0,0,0,0,0,0,0,0,0,0,0,
0,0,2041,-92,-14,-7,-17,5,53,0,0,0,0,0,0,0,0,0,0,0,
0,0,2051,-101,-19,-6,-19,3,47,0,0,0,0,0,0,0,0,0,0,0,
0,0,2051,-101,-19,-6,-17,6,52,0,0,0,0,0,0,0,0,0,0,0,
0,0,2049,-97,-20,-8,-19,6,49,0,0,0,0,0,0,0,0,0,0,0,
0,0,2039,-103,-18,-5,-17,3,36,0,0,0,0,0,0,0,0,0,0,0,
0,0,2033,-106,-23,-6,-18,5,22,0,0,0,0,0,0,0,0,0,0,0,
0,0,2033,-106,-23,-5,-18,3,21,0,0,0,0,0,0,0,0,0,0,0,
0,0,2047,-95,-17,-4,-16,8,60,0,0,0,0,0,0,0,0,0,0,0,
0,0,2038,-96,-20,-10,-19,3,33,0,0,0,0,0,0,0,0,0,0,0,
0,0,2049,-100,-24,-6,-18,4,43,0,0,0,0,0,0,0,0,0,0,0,
0,0,2045,-97,-12,-9,-20,6,50,0,0,0,0,0,0,0,0,0,0,0,
0,0,2045,-99,-20,-9,-20,7,41,0,0,0,0,0,0,0,0,0,0,0,
0,0,2058,-95,-19,-9,-20,5,58,0,0,0,0,0,0,0,0,0,0,0,
0,0,2047,-93,-12,-6,-19,5,59,0,0,0,0,0,0,0,0,0,0,0,
0,0,2036,-97,-13,-8,-19,7,43,0,0,0,0,0,0,0,0,0,0,0,
0,0,2048,-103,-14,-4,-20,8,53,0,0,0,0,0,0,0,0,0,0,0,
0,0,2045,-97,-15,-7,-20,6,49,0,0,0,0,0,0,0,0,0,0,0,
0,0,2043,-98,-20,-7,-14,6,47,0,0,0,0,0,0,0,0,0,0,0,
0,0,2049,-98,-20,-11,-19,4,43,0,0,0,0,0,0,0,0,0,0,0,
0,0,2040,-98,-23,-6,-20,5,35,0,0,0,0,0,0,0,0,0,0,0,
0,0,2045,-100,-15,-6,-18,5,48,0,0,0,0,0,0,0,0,0,0,0,
0,0,2046,-100,-22,-9,-21,6,37,0,0,0,0,0,0,0,0,0,0,0,
0,0,2042,-101,-16,-7,-19,7,43,0,0,0,0,0,0,0,0,0,0,0,
0,0,2051,-96,-13,-6,-21,5,58,0,0,0,0,0,0,0,0,0,0,0,
0,0,2046,-103,-19,-3,-17,5,46,0,0,0,0,0,0,0,0,0,0,0,
0,0,2043,-104,-14,-7,-21,4,38,0,0,0,0,0,0,0,0,0,0,0,
0,0,2050,-95,-8,-6,-22,7,64,0,0,0,0,0,0,0,0,0,0,0,
0,0,2045,-99,-15,-8,-17,6,49,0,0,0,0,0,0,0,0,0,0,0,
0,0,2046,-97,-14,-7,-20,6,51,0,0,0,0,0,0,0,0,0,0,0,
0,0,2048,-99,-12,-9,-19,6,53,0,0,0,0,0,0,0,0,0,0,0,
0,0,2044,-95,-17,-6,-18,6,51,0,0,0,0,0,0,0,0,0,0,0,
0,0,2051,-99,-12,-10,-16,4,56,0,0,0,0,0,0,0,0,0,0,0,
0,0,2040,-94,-14,-7,-19,2,45,0,0,0,0,0,0,0,0,0,0,0,
0,0,2044,-100,-13,-9,-19,5,45,0,0,0,0,0,0,0,0,0,0,0,
0,0,2043,-97,-11,-8,-17,6,53,0,0,0,0,0,0,0,0,0,0,0,
0,0,2046,-107,-14,-8,-17,6,43,0,0,0,0,0,0,0,0,0,0,0,
0,0,2045,-103,-11,-7,-18,6,49,0,0,0,0,0,0,0,0,0,0,0,
0,0,2049,-103,-17,-5,-17,6,51,0,0,0,0,0,0,0,0,0,0,0,
0,0,2042,-97,-16,-5,-20,3,44,0,0,0,0,0,0,0,0,0,0,0,
0,0,2046,-99,-20,-6,-17,7,48,0,0,0,0,0,0,0,0,0,0,0,
0,0,2047,-96,-18,-9,-19,9,51,0,0,0,0,0,0,0,0,0,0,0,
0,0,2045,-101,-18,-2,-18,7,50,0,0,0,0,0,0,0,0,0,0,0,
0,0,2048,-103,-20,-8,-19,6,42,0,0,0,0,0,0,0,0,0,0,0,
0,0,2048,-103,-18,-5,-19,6,47,0,0,0,0,0,0,0,0,0,0,0,
0,0,2048,-104,-11,-5,-19,6,53,0,0,0,0,0,0,0,0,0,0,0,
0,0,2047,-96,-15,-6,-18,9,58,0,0,0,0,0,0,0,0,0,0,0,
0,0,2045,-97,-22,-9,-17,5,42,0,0,0,0,0,0,0,0,0,0,0,
0,0,2048,-105,-17,-8,-17,5,44,0,0,0,0,0,0,0,0,0,0,0,
0,0,2045,-106,-16,-8,-20,2,34,0,0,0,0,0,0,0,0,0,0,0,
0,0,2042,-98,-16,-8,-21,6,42,0,0,0,0,0,0,0,0,0,0,0,
0,0,2047,-99,-17,-5,-19,2,46,0,0,0,0,0,0,0,0,0,0,0,
0,0,2049,-98,-19,-8,-17,5,50,0,0,0,0,0,0,0,0,0,0,0,
0,0,2040,-101,-18,-4,-18,5,41,0,0,0,0,0,0,0,0,0,0,0,
0,0,2045,-95,-17,-7,-18,7,52,0,0,0,0,0,0,0,0,0,0,0,
0,0,2047,-105,-19,-2,-17,3,44,0,0,0,0,0,0,0,0,0,0,0,
0,0,2042,-99,-20,-8,-20,6,38,0,0,0,0,0,0,0,0,0,0,0,
0,0,2047,-95,-19,-7,-18,4,49,0,0,0,0,0,0,0,0,0,0,0,
0,0,2048,-101,-18,-8,-19,8,48,0,0,0,0,0,0,0,0,0,0,0,
0,0,2041,-100,-18,-8,-18,6,40,0,0,0,0,0,0,0,0,0,0,0,
0,0,2046,-104,-19,-8,-17,2,37,0,0,0,0,0,0,0,0,0,0,0,
0,0,2044,-101,-20,-6,-19,5,40,0,0,0,0,0,0,0,0,0,0,0,
0,0,2046,-97,-13,-11,-20,7,49,0,0,0,0,0,0,0,0,0,0,0,
0,0,2043,-96,-22,-10,-17,2,37,0,0,0,0,0,0,0,0,0,0,0,
0,0,2045,-101,-14,-3,-17,7,54,0,0,0,0,0,0,0,0,0,0,0,
0,0,2046,-101,-21,-7,-20,7,41,0,0,0,0,0,0,0,0,0,0,0,
0,0,2043,-101,-14,-5,-19,2,43,0,0,0,0,0,0,0,0,0,0,0,
0,0,2042,-101,-16,-8,-21,4,37,0,0,0,0,0,0,0,0,0,0,0,
0,0,2046,-98,-27,-8,-19,4,35,0,0,0,0,0,0,0,0,0,0,0,
0,0,2043,-107,-20,-9,-20,6,30,0,0,0,0,0,0,0,0,0,0,0,
0,0,2048,-99,-21,-8,-16,6,48,0,0,0,0,0,0,0,0,0,0,0,
0,0,2039,-94,-19,-8,-22,4,37,0,0,0,0,0,0,0,0,0,0,0,
0,0,2045,-100,-16,-9,-16,5,46,0,0,0,0,0,0,0,0,0,0,0,
0,0,2048,-103,-20,-3,-17,2,45,0,0,0,0,0,0,0,0,0,0,0,
0,0,2039,-101,-15,-6,-17,3,40,0,0,0,0,0,0,0,0,0,0,0,
0,0,2045,-100,-24,-7,-16,6,41,0,0,0,0,0,0,0,0,0,0,0,
0,0,2048,-99,-18,-7,-20,5,47,0,0,0,0,0,0,0,0,0,0,0,
0,0,2044,-101,-17,-9,-16,4,42,0,0,0,0,0,0,0,0,0,0,0,
0,0,2051,-98,-18,-6,-20,7,54,0,0,0,0,0,0,0,0,0,0,0,
0,0,2047,-100,-17,-3,-19,6,51,0,0,0,0,0,0,0,0,0,0,0,
0,0,2052,-99,-23,-6,-19,6,49,0,0,0,0,0,0,0,0,0,0,0,
0,0,2042,-95,-19,-10,-17,5,43,0,0,0,0,0,0,0,0,0,0,0,
0,0,2044,-99,-16,-6,-21,6,45,0,0,0,0,0,0,0,0,0,0,0,
0,0,2047,-103,-21,-8,-16,6,42,0,0,0,0,0,0,0,0,0,0,0,
0,0,2047,-98,-14,-6,-17,5,54,0,0,0,0,0,0,0,0,0,0,0,
0,0,2046,-104,-26,-7,-17,5,34,0,0,0,0,0,0,0,0,0,0,0,
0,0,2045,-100,-23,-7,-16,5,41,0,0,0,0,0,0,0,0,0,0,0,
0,0,2048,-106,-16,-8,-18,6,44,0,0,0,0,0,0,0,0,0,0,0,
0,0,2050,-96,-14,-7,-19,9,61,0,0,0,0,0,0,0,0,0,0,0,
0,0,2043,-93,-15,-9,-18,4,49,0,0,0,0,0,0,0,0,0,0,0,
0,0,2043,-98,-18,-8,-20,6,42,0,0,0,0,0,0,0,0,0,0,0,
0,0,2044,-97,-16,-6,-20,7,49,0,0,0,0,0,0,0,0,0,0,0,
0,0,2039,-101,-19,-5,-16,7,42,0,0,0,0,0,0,0,0,0,0,0,
0,0,2046,-100,-16,-5,-16,7,53,0,0,0,0,0,0,0,0,0,0,0,
0,0,2043,-98,-17,-10,-21,9,43,0,0,0,0,0,0,0,0,0,0,0,
0,0,2053,-100,-17,-6,-16,3,55,0,0,0,0,0,0,0,0,0,0,0,
0,0,2051,-101,-13,-4,-21,10,60,0,0,0,0,0,0,0,0,0,0,0,
0,0,2039,-106,-13,-7,-16,6,40,0,0,0,0,0,0,0,0,0,0,0,
0,0,2044,-101,-14,-6,-19,4,45,0,0,0,0,0,0,0,0,0,0,0,
0,0,2042,-100,-14,-9,-17,6,45,0,0,0,0,0,0,0,0,0,0,0,
0,0,2043,-103,-24,-6,-20,7,34,0,0,0,0,0,0,0,0,0,0,0,
0,0,2047,-100,-17,-8,-19,6,46,0,0,0,0,0,0,0,0,0,0,0,
0,0,2046,-100,-20,-8,-16,6,45,0,0,0,0,0,0,0,0,0,0,0,
0,0,2051,-93,-10,-8,-19,8,67,0,0,0,0,0,0,0,0,0,0,0,
0,0,2039,-97,-16,-10,-19,3,37,0,0,0,0,0,0,0,0,0,0,0,
0,0,2050,-98,-20,-10,-15,6,51,0,0,0,0,0,0,0,0,0,0,0,
0,0,2040,-102,-16,-10,-15,8,42,0,0,0,0,0,0,0,0,0,0,0,
0,0,2040,-102,-16,-10,-15,8,42,0,0,0,0,0,0,0,0,0,0,0,
0,0,2050,-89,-20,-5,-18,6,62,0,0,0,0,0,0,0,0,0,0,0,
0,0,2046,-98,-12,-5,-18,7,57,0,0,0,0,0,0,0,0,0,0,0,
0,0,2044,-100,-14,-10,-19,6,44,0,0,0,0,0,0,0,0,0,0,0,
0,0,2044,-100,-14,-6,-18,5,48,0,0,0,0,0,0,0,0,0,0,0,
0,0,2044,-104,-19,-6,-22,7,37,0,0,0,0,0,0,0,0,0,0,0,
0,0,2044,-101,-16,-5,-18,6,47,0,0,0,0,0,0,0,0,0,0,0,
0,0,2043,-92,-15,-8,-17,5,53,0,0,0,0,0,0,0,0,0,0,0,
0,0,2038,-104,-17,-8,-21,7,32,0,0,0,0,0,0,0,0,0,0,0,
0,0,2038,-104,-17,-9,-19,6,32,0,0,0,0,0,0,0,0,0,0,0,
0,0,2049,-100,-16,-10,-18,1,44,0,0,0,0,0,0,0,0,0,0,0,
0,0,2050,-95,-18,-5,-17,4,57,0,0,0,0,0,0,0,0,0,0,0,
0,0,2045,-100,-18,-3,-17,8,52,0,0,0,0,0,0,0,0,0,0,0,
0,0,2042,-102,-20,-7,-17,4,37,0,0,0,0,0,0,0,0,0,0,0,
0,0,2043,-103,-21,-6,-19,2,33,0,0,0,0,0,0,0,0,0,0,0,
0,0,2048,-101,-17,-7,-17,2,46,0,0,0,0,0,0,0,0,0,0,0,
0,0,2050,-95,-17,-9,-16,5,56,0,0,0,0,0,0,0,0,0,0,0,
0,0,2050,-104,-14,-8,-20,5,47,0,0,0,0,0,0,0,0,0,0,0,
0,0,2040,-103,-10,-7,-18,8,47,0,0,0,0,0,0,0,0,0,0,0,
0,0,2042,-97,-13,-9,-19,5,46,0,0,0,0,0,0,0,0,0,0,0,
0,0,2044,-96,-14,-7,-12,6,58,0,0,0,0,0,0,0,0,0,0,0,
0,0,2044,-102,-18,-5,-18,8,46,0,0,0,0,0,0,0,0,0,0,0,
0,0,2052,-102,-20,-8,-16,5,49,0,0,0,0,0,0,0,0,0,0,0,
0,0,2048,-96,-25,-9,-19,5,42,0,0,0,0,0,0,0,0,0,0,0,
0,0,2037,-96,-12,-4,-17,8,53,0,0,0,0,0,0,0,0,0,0,0,
0,0,2047,-99,-21,-5,-18,3,44,0,0,0,0,0,0,0,0,0,0,0,
0,0,2049,-101,-17,-5,-18,4,50,0,0,0,0,0,0,0,0,0,0,0,
0,0,2049,-93,-16,-2,-16,8,68,0,0,0,0,0,0,0,0,0,0,0,
0,0,2046,-95,-21,-8,-18,6,47,0,0,0,0,0,0,0,0,0,0,0,
0,0,2043,-95,-18,-9,-19,6,45,0,0,0,0,0,0,0,0,0,0,0,
0,0,2043,-104,-19,-9,-20,7,35,0,0,0,0,0,0,0,0,0,0,0,
0,0,2045,-105,-24,-5,-20,7,35,0,0,0,0,0,0,0,0,0,0,0,
0,0,2051,-102,-19,-4,-16,5,53,0,0,0,0,0,0,0,0,0,0,0,
0,0,2038,-104,-17,-11,-21,3,25,0,0,0,0,0,0,0,0,0,0,0,
0,0,2043,-96,-25,-6,-18,7,42,0,0,0,0,0,0,0,0,0,0,0,
0,0,2048,-105,-13,-5,-17,6,52,0,0,0,0,0,0,0,0,0,0,0,
0,0,2046,-100,-19,-7,-17,7,47,0,0,0,0,0,0,0,0,0,0,0,
0,0,2050,-94,-15,-10,-18,1,52,0,0,0,0,0,0,0,0,0,0,0,
0,0,2043,-101,-24,-7,-20,5,33,0,0,0,0,0,0,0,0,0,0,0,
0,0,2046,-93,-19,-5,-14,11,63,0,0,0,0,0,0,0,0,0,0,0,
0,0,2047,-100,-25,-11,-19,4,33,0,0,0,0,0,0,0,0,0,0,0,
0,0,2046,-95,-18,-5,-22,4,47,0,0,0,0,0,0,0,0,0,0,0,
0,0,2048,-98,-18,-9,-21,6,46,0,0,0,0,0,0,0,0,0,0,0,
0,0,2045,-104,-18,-9,-17,6,40,0,0,0,0,0,0,0,0,0,0,0,
0,0,2049,-102,-14,-3,-19,10,59,0,0,0,0,0,0,0,0,0,0,0,
0,0,2043,-102,-18,-6,-18,3,39,0,0,0,0,0,0,0,0,0,0,0,
0,0,2045,-96,-19,-5,-20,7,49,0,0,0,0,0,0,0,0,0,0,0,
0,0,2042,-95,-17,-8,-17,9,51,0,0,0,0,0,0,0,0,0,0,0,
0,0,2046,-100,-17,-8,-18,9,49,0,0,0,0,0,0,0,0,0,0,0,
0,0,2048,-103,-23,-9,-18,4,37,0,0,0,0,0,0,0,0,0,0,0,
0,0,2047,-98,-10,-6,-19,5,56,0,0,0,0,0,0,0,0,0,0,0,
0,0,2047,-102,-16,-7,-19,6,46,0,0,0,0,0,0,0,0,0,0,0,
0,0,2047,-103,-17,-4,-19,7,48,0,0,0,0,0,0,0,0,0,0,0,
0,0,2044,-97,-22,-8,-19,2,37,0,0,0,0,0,0,0,0,0,0,0,
0,0,2049,-97,-16,-10,-23,6,47,0,0,0,0,0,0,0,0,0,0,0,
0,0,2047,-102,-17,-4,-18,6,49,0,0,0,0,0,0,0,0,0,0,0,
0,0,2047,-99,-17,-9,-21,6,44,0,0,0,0,0,0,0,0,0,0,0,
0,0,2042,-99,-19,-4,-19,6,44,0,0,0,0,0,0,0,0,0,0,0,
0,0,2046,-105,-24,-5,-17,6,38,0,0,0,0,0,0,0,0,0,0,0,
0,0,2046,-108,-19,-6,-19,6,37,0,0,0,0,0,0,0,0,0,0,0,
0,0,2046,-99,-23,-6,-17,4,42,0,0,0,0,0,0,0,0,0,0,0,
0,0,2041,-97,-14,-10,-17,6,46,0,0,0,0,0,0,0,0,0,0,0,
0,0,2036,-102,-20,-8,-18,5,30,0,0,0,0,0,0,0,0,0,0,0,
0,0,2043,-97,-17,-4,-18,4,48,0,0,0,0,0,0,0,0,0,0,0,
0,0,2042,-104,-16,-6,-18,4,39,0,0,0,0,0,0,0,0,0,0,0,
0,0,2046,-99,-15,-7,-20,3,45,0,0,0,0,0,0,0,0,0,0,0,
0,0,2043,-108,-15,-7,-18,5,37,0,0,0,0,0,0,0,0,0,0,0,
0,0,2046,-95,-18,-5,-18,7,54,0,0,0,0,0,0,0,0,0,0,0,
0,0,2048,-101,-26,-5,-17,7,44,0,0,0,0,0,0,0,0,0,0,0,
0,0,2046,-105,-19,-7,-14,-1,36,0,0,0,0,0,0,0,0,0,0,0,
0,0,2043,-103,-16,-10,-20,6,37,0,0,0,0,0,0,0,0,0,0,0,
0,0,2048,-101,-18,-4,-19,10,54,0,0,0,0,0,0,0,0,0,0,0,
0,0,2048,-99,-17,-7,-16,3,50,0,0,0,0,0,0,0,0,0,0,0,
0,0,2048,-100,-14,-6,-19,9,56,0,0,0,0,0,0,0,0,0,0,0,
0,0,2044,-105,-22,-10,-18,4,30,0,0,0,0,0,0,0,0,0,0,0,
0,0,2051,-100,-18,-5,-19,6,53,0,0,0,0,0,0,0,0,0,0,0,
0,0,2046,-93,-18,-4,-18,8,58,0,0,0,0,0,0,0,0,0,0,0,
0,0,2049,-107,-14,-7,-17,3,45,0,0,0,0,0,0,0,0,0,0,0,
0,0,2042,-100,-20,-10,-20,9,38,0,0,0,0,0,0,0,0,0,0,0,
0,0,2040,-98,-17,-8,-20,10,44,0,0,0,0,0,0,0,0,0,0,0,
0,0,2046,-98,-19,-6,-17,4,47,0,0,0,0,0,0,0,0,0,0,0,
0,0,2044,-100,-18,-7,-21,6,41,0,0,0,0,0,0,0,0,0,0,0,
0,0,2043,-100,-22,-8,-21,7,36,0,0,0,0,0,0,0,0,0,0,0,
0,0,2051,-97,-24,-8,-17,7,50,0,0,0,0,0,0,0,0,0,0,0,
0,0,2047,-97,-15,-8,-18,7,53,0,0,0,0,0,0,0,0,0,0,0,
0,0,2043,-105,-19,-5,-17,6,40,0,0,0,0,0,0,0,0,0,0,0,
0,0,2045,-98,-19,-6,-17,7,49,0,0,0,0,0,0,0,0,0,0,0,
0,0,2045,-94,-21,-6,-20,6,47,0,0,0,0,0,0,0,0,0,0,0,
0,0,2041,-100,-17,-6,-18,8,45,0,0,0,0,0,0,0,0,0,0,0,
0,0,2043,-106,-15,-8,-18,6,39,0,0,0,0,0,0,0,0,0,0,0,
0,0,2047,-99,-15,-6,-18,5,51,0,0,0,0,0,0,0,0,0,0,0,
0,0,2044,-97,-19,-6,-20,4,43,0,0,0,0,0,0,0,0,0,0,0,
0,0,2045,-102,-16,-5,-19,5,45,0,0,0,0,0,0,0,0,0,0,0,
0,0,2041,-105,-16,-6,-20,7,38,0,0,0,0,0,0,0,0,0,0,0,
0,0,2049,-104,-14,-9,-19,6,47,0,0,0,0,0,0,0,0,0,0,0,
0,0,2049,-105,-21,-6,-18,9,46,0,0,0,0,0,0,0,0,0,0,0,
0,0,2045,-104,-20,-6,-17,7,42,0,0,0,0,0,0,0,0,0,0,0,
0,0,2042,-97,-20,-9,-19,6,40,0,0,0,0,0,0,0,0,0,0,0,
0,0,2044,-105,-17,-7,-18,5,39,0,0,0,0,0,0,0,0,0,0,0,
0,0,2044,-105,-17,-7,-20,7,39,0,0,0,0,0,0,0,0,0,0,0,
0,0,2052,-92,-19,-7,-20,4,56,0,0,0,0,0,0,0,0,0,0,0,
0,0,2047,-106,-18,-8,-19,6,39,0,0,0,0,0,0,0,0,0,0,0,
0,0,2051,-99,-21,-6,-16,4,51,0,0,0,0,0,0,0,0,0,0,0,
0,0,2051,-96,-23,-5,-19,7,53,0,0,0,0,0,0,0,0,0,0,0,
0,0,2047,-106,-16,-4,-21,3,40,0,0,0,0,0,0,0,0,0,0,0,
0,0,2049,-101,-14,-5,-20,7,54,0,0,0,0,0,0,0,0,0,0,0,
0,0,2041,-94,-15,-6,-18,6,51,0,0,0,0,0,0,0,0,0,0,0,
0,0,2049,-95,-20,-9,-16,3,50,0,0,0,0,0,0,0,0,0,0,0,
0,0,2044,-101,-24,-7,-21,6,34,0,0,0,0,0,0,0,0,0,0,0,
0,0,2045,-94,-16,-9,-19,5,49,0,0,0,0,0,0,0,0,0,0,0,
0,0,2040,-96,-14,-7,-16,4,48,0,0,0,0,0,0,0,0,0,0,0,
0,0,2040,-96,-14,-7,-16,4,48,0,0,0,0,0,0,0,0,0,0,0,
0,0,2046,-99,-17,-3,-20,3,47,0,0,0,0,0,0,0,0,0,0,0,
0,0,2045,-104,-17,-3,-17,5,46,0,0,0,0,0,0,0,0,0,0,0,
0,0,2049,-96,-15,-4,-17,7,62,0,0,0,0,0,0,0,0,0,0,0,
0,0,2049,-96,-15,-7,-16,4,57,0,0,0,0,0,0,0,0,0,0,0,
0,0,2052,-98,-21,-4,-16,4,55,0,0,0,0,0,0,0,0,0,0,0,
0,0,2050,-97,-17,-8,-19,7,54,0,0,0,0,0,0,0,0,0,0,0,
0,0,2049,-101,-15,-3,-18,11,61,0,0,0,0,0,0,0,0,0,0,0,
0,0,2049,-101,-15,-9,-18,6,50,0,0,0,0,0,0,0,0,0,0,0,
0,0,2048,-98,-24,-8,-18,5,43,0,0,0,0,0,0,0,0,0,0,0,
0,0,2044,-96,-11,-7,-19,5,53,0,0,0,0,0,0,0,0,0,0,0,
0,0,2049,-104,-26,-4,-16,6,43,0,0,0,0,0,0,0,0,0,0,0,
0,0,2036,-105,-18,-10,-21,4,23,0,0,0,0,0,0,0,0,0,0,0,
0,0,2040,-98,-17,-8,-18,6,42,0,0,0,0,0,0,0,0,0,0,0,
0,0,2049,-103,-12,-6,-19,3,50,0,0,0,0,0,0,0,0,0,0,0,
0,0,2048,-108,-15,-7,-20,8,44,0,0,0,0,0,0,0,0,0,0,0,
0,0,2046,-104,-10,-9,-17,4,47,0,0,0,0,0,0,0,0,0,0,0,
0,0,2041,-102,-14,-9,-15,7,45,0,0,0,0,0,0,0,0,0,0,0,
0,0,2050,-92,-24,-7,-21,6,50,0,0,0,0,0,0,0,0,0,0,0,
0,0,2048,-103,-11,-8,-20,3,47,0,0,0,0,0,0,0,0,0,0,0,
0,0,2045,-95,-19,-5,-18,1,46,0,0,0,0,0,0,0,0,0,0,0,
0,0,2052,-95,-17,-6,-20,8,60,0,0,0,0,0,0,0,0,0,0,0,
0,0,2042,-98,-12,-8,-19,4,46,0,0,0,0,0,0,0,0,0,0,0,
0,0,2049,-101,-21,-8,-21,7,43,0,0,0,0,0,0,0,0,0,0,0,
0,0,2040,-101,-14,-7,-17,4,42,0,0,0,0,0,0,0,0,0,0,0,
0,0,2048,-99,-17,-5,-19,5,51,0,0,0,0,0,0,0,0,0,0,0,
0,0,2042,-97,-18,-5,-18,4,45,0,0,0,0,0,0,0,0,0,0,0,
0,0,2054,-99,-19,-8,-20,3,49,0,0,0,0,0,0,0,0,0,0,0,
0,0,2046,-98,-17,-4,-17,8,55,0,0,0,0,0,0,0,0,0,0,0,
0,0,2047,-99,-12,-5,-15,6,59,0,0,0,0,0,0,0,0,0,0,0,
0,0,2035,-97,-27,-4,-19,9,34,0,0,0,0,0,0,0,0,0,0,0,
0,0,2049,-101,-14,-8,-18,3,49,0,0,0,0,0,0,0,0,0,0,0,
0,0,2045,-102,-20,-6,-18,7,43,0,0,0,0,0,0,0,0,0,0,0,
0,0,2039,-98,-20,-8,-18,7,39,0,0,0,0,0,0,0,0,0,0,0,
0,0,2044,-102,-18,-3,-16,11,53,0,0,0,0,0,0,0,0,0,0,0,
0,0,2043,-103,-10,-7,-18,5,47,0,0,0,0,0,0,0,0,0,0,0,
0,0,2050,-106,-19,-5,-17,2,43,0,0,0,0,0,0,0,0,0,0,0,
0,0,2043,-105,-13,-10,-19,7,40,0,0,0,0,0,0,0,0,0,0,0,
0,0,2047,-102,-18,-6,-18,7,47,0,0,0,0,0,0,0,0,0,0,0,
0,0,2055,-100,-18,-5,-17,8,61,0,0,0,0,0,0,0,0,0,0,0,
0,0,2046,-102,-22,-9,-19,2,33,0,0,0,0,0,0,0,0,0,0,0,
0,0,2048,-97,-13,-4,-18,9,63,0,0,0,0,0,0,0,0,0,0,0,
0,0,2050,-98,-16,-7,-21,6,52,0,0,0,0,0,0,0,0,0,0,0,
0,0,2048,-103,-16,-8,-16,4,47,0,0,0,0,0,0,0,0,0,0,0,
0,0,2044,-95,-23,-6,-17,6,46,0,0,0,0,0,0,0,0,0,0,0,
0,0,2046,-95,-15,-5,-18,5,55,0,0,0,0,0,0,0,0,0,0,0,
0,0,2053,-101,-16,-4,-19,7,58,0,0,0,0,0,0,0,0,0,0,0,
0,0,2046,-103,-19,-7,-20,6,40,0,0,0,0,0,0,0,0,0,0,0,
0,0,2041,-100,-20,-4,-18,6,42,0,0,0,0,0,0,0,0,0,0,0,
0,0,2043,-94,-20,-7,-18,4,45,0,0,0,0,0,0,0,0,0,0,0,
0,0,2047,-97,-17,-8,-18,4,48,0,0,0,0,0,0,0,0,0,0,0,
0,0,2043,-97,-27,-4,-21,7,38,0,0,0,0,0,0,0,0,0,0,0,
0,0,2047,-101,-16,-13,-19,3,38,0,0,0,0,0,0,0,0,0,0,0,
0,0,2041,-98,-15,-7,-15,7,50,0,0,0,0,0,0,0,0,0,0,0,
0,0,2046,-96,-18,-3,-19,4,51,0,0,0,0,0,0,0,0,0,0,0,
0,0,2054,-99,-16,-9,-16,4,56,0,0,0,0,0,0,0,0,0,0,0,
0,0,2045,-98,-14,-6,-20,6,50,0,0,0,0,0,0,0,0,0,0,0,
0,0,2044,-90,-15,-10,-20,6,52,0,0,0,0,0,0,0,0,0,0,0,
0,0,2043,-99,-17,-6,-16,9,51,0,0,0,0,0,0,0,0,0,0,0,
0,0,2043,-102,-16,-6,-19,4,41,0,0,0,0,0,0,0,0,0,0,0,
0,0,2041,-102,-18,-9,-17,7,39,0,0,0,0,0,0,0,0,0,0,0,
0,0,2043,-105,-18,-4,-17,4,40,0,0,0,0,0,0,0,0,0,0,0,
0,0,2051,-96,-18,-5,-17,3,56,0,0,0,0,0,0,0,0,0,0,0,
0,0,2045,-96,-18,-6,-22,4,44,0,0,0,0,0,0,0,0,0,0,0,
0,0,2045,-98,-7,-6,-19,7,59,0,0,0,0,0,0,0,0,0,0,0,
0,0,2037,-102,-14,-5,-18,8,43,0,0,0,0,0,0,0,0,0,0,0,
0,0,2043,-104,-18,-6,-16,5,41,0,0,0,0,0,0,0,0,0,0,0,
0,0,2043,-103,-21,-4,-18,7,41,0,0,0,0,0,0,0,0,0,0,0,
0,0,2045,-97,-16,-6,-18,5,50,0,0,0,0,0,0,0,0,0,0,0,
0,0,2045,-101,-20,-7,-19,6,41,0,0,0,0,0,0,0,0,0,0,0,
0,0,2046,-101,-21,-9,-18,3,37,0,0,0,0,0,0,0,0,0,0,0,
0,0,2048,-101,-16,-9,-19,7,48,0,0,0,0,0,0,0,0,0,0,0,
0,0,2042,-98,-18,-5,-17,7,48,0,0,0,0,0,0,0,0,0,0,0,
0,0,2045,-97,-23,-6,-17,6,45,0,0,0,0,0,0,0,0,0,0,0,
0,0,2046,-105,-20,-6,-20,4,36,0,0,0,0,0,0,0,0,0,0,0,
0,0,2045,-101,-17,-6,-17,7,48,0,0,0,0,0,0,0,0,0,0,0,
0,0,2049,-102,-21,-10,-19,4,39,0,0,0,0,0,0,0,0,0,0,0,
0,0,2049,-101,-17,-6,-20,9,52,0,0,0,0,0,0,0,0,0,0,0,
0,0,2043,-103,-21,-4,-21,3,34,0,0,0,0,0,0,0,0,0,0,0,
0,0,2044,-99,-19,-8,-18,7,44,0,0,0,0,0,0,0,0,0,0,0,
0,0,2043,-102,-22,-9,-19,4,32,0,0,0,0,0,0,0,0,0,0,0,
0,0,2045,-103,-16,-8,-17,7,45,0,0,0,0,0,0,0,0,0,0,0,
0,0,2045,-104,-16,-7,-17,5,43,0,0,0,0,0,0,0,0,0,0,0,
0,0,2044,-94,-32,-6,-19,6,36,0,0,0,0,0,0,0,0,0,0,0,
0,0,2049,-96,-16,-3,-19,8,61,0,0,0,0,0,0,0,0,0,0,0,
0,0,2042,-93,-11,-7,-14,8,62,0,0,0,0,0,0,0,0,0,0,0,
0,0,2047,-105,-22,-7,-17,5,38,0,0,0,0,0,0,0,0,0,0,0,
0,0,2056,-100,-24,-10,-17,6,49,0,0,0,0,0,0,0,0,0,0,0,
0,0,2048,-95,-20,-9,-17,5,50,0,0,0,0,0,0,0,0,0,0,0,
0,0,2050,-94,-22,-8,-20,5,49,0,0,0,0,0,0,0,0,0,0,0,
0,0,2050,-95,-15,-2,-18,6,64,0,0,0,0,0,0,0,0,0,0,0,
0,0,2043,-99,-19,-9,-18,4,39,0,0,0,0,0,0,0,0,0,0,0,
0,0,2036,-101,-17,-6,-22,5,32,0,0,0,0,0,0,0,0,0,0,0,
0,0,2040,-102,-18,-4,-16,5,42,0,0,0,0,0,0,0,0,0,0,0,
0,0,2042,-104,-15,-8,-18,7,41,0,0,0,0,0,0,0,0,0,0,0,
0,0,2053,-104,-21,-6,-16,4,48,0,0,0,0,0,0,0,0,0,0,0,
0,0,2043,-101,-22,-10,-19,7,35,0,0,0,0,0,0,0,0,0,0,0,
0,0,2047,-101,-15,-6,-19,5,48,0,0,0,0,0,0,0,0,0,0,0,
0,0,2046,-102,-20,-4,-20,7,44,0,0,0,0,0,0,0,0,0,0,0,
0,0,2046,-101,-15,-4,-22,5,46,0,0,0,0,0,0,0,0,0,0,0,
0,0,2047,-103,-23,-7,-15,8,44,0,0,0,0,0,0,0,0,0,0,0,
0,0,2047,-99,-19,-4,-19,4,47,0,0,0,0,0,0,0,0,0,0,0,
0,0,2050,-95,-17,-12,-18,4,50,0,0,0,0,0,0,0,0,0,0,0,
0,0,2044,-104,-18,-4,-17,3,41,0,0,0,0,0,0,0,0,0,0,0,
0,0,2045,-104,-19,-10,-18,3,34,0,0,0,0,0,0,0,0,0,0,0,
0,0,2048,-101,-16,-8,-19,9,51,0,0,0,0,0,0,0,0,0,0,0,
0,0,2041,-97,-15,-8,-20,4,42,0,0,0,0,0,0,0,0,0,0,0,
0,0,2045,-100,-22,-9,-18,8,41,0,0,0,0,0,0,0,0,0,0,0,
0,0,2045,-100,-22,-9,-18,8,41,0,0,0,0,0,0,0,0,0,0,0,
0,0,2045,-103,-12,-9,-18,6,46,0,0,0,0,0,0,0,0,0,0,0,
0,0,2045,-103,-12,-8,-18,4,45,0,0,0,0,0,0,0,0,0,0,0,
0,0,2045,-102,-26,-7,-20,9,36,0,0,0,0,0,0,0,0,0,0,0,
0,0,2050,-104,-17,-5,-18,9,53,0,0,0,0,0,0,0,0,0,0,0,
0,0,2046,-99,-19,-9,-18,5,43,0,0,0,0,0,0,0,0,0,0,0,
0,0,2046,-99,-19,-8,-20,3,40,0,0,0,0,0,0,0,0,0,0,0,
0,0,2043,-94,-19,-4,-19,8,52,0,0,0,0,0,0,0,0,0,0,0,
0,0,2043,-98,-17,-7,-16,9,51,0,0,0,0,0,0,0,0,0,0,0,
0,0,2049,-93,-19,-7,-18,5,55,0,0,0,0,0,0,0,0,0,0,0,
0,0,2049,-93,-19,-6,-14,3,58,0,0,0,0,0,0,0,0,0,0,0,
0,0,2042,-91,-22,-5,-16,9,54,0,0,0,0,0,0,0,0,0,0,0,
0,0,2052,-102,-14,-5,-18,8,59,0,0,0,0,0,0,0,0,0,0,0,
0,0,2036,-108,-9,-5,-17,4,38,0,0,0,0,0,0,0,0,0,0,0,
0,0,2047,-104,-18,-5,-19,4,42,0,0,0,0,0,0,0,0,0,0,0,
0,0,2044,-99,-20,-5,-16,8,49,0,0,0,0,0,0,0,0,0,0,0,
0,0,2045,-108,-17,-4,-19,6,40,0,0,0,0,0,0,0,0,0,0,0,
0,0,2041,-99,-18,-6,-18,6,43,0,0,0,0,0,0,0,0,0,0,0,
0,0,2053,-97,-16,-7,-18,4,57,0,0,0,0,0,0,0,0,0,0,0,
0,0,2046,-97,-17,-6,-21,6,48,0,0,0,0,0,0,0,0,0,0,0,
0,0,2043,-93,-14,-6,-20,7,54,0,0,0,0,0,0,0,0,0,0,0,
0,0,2041,-100,-18,-7,-16,4,41,0,0,0,0,0,0,0,0,0,0,0,
0,0,2045,-100,-16,-8,-19,6,45,0,0,0,0,0,0,0,0,0,0,0,
0,0,2044,-102,-23,-6,-18,5,37,0,0,0,0,0,0,0,0,0,0,0,
0,0,2044,-97,-21,-9,-15,5,44,0,0,0,0,0,0,0,0,0,0,0,
0,0,2047,-94,-18,-9,-20,4,47,0,0,0,0,0,0,0,0,0,0,0,
0,0,2044,-99,-19,-7,-18,6,44,0,0,0,0,0,0,0,0,0,0,0,
0,0,2041,-101,-18,-5,-21,8,41,0,0,0,0,0,0,0,0,0,0,0,
0,0,2047,-98,-22,-8,-20,4,40,0,0,0,0,0,0,0,0,0,0,0,
0,0,2049,-102,-21,-8,-16,4,44,0,0,0,0,0,0,0,0,0,0,0,
0,0,2041,-97,-24,-5,-20,8,40,0,0,0,0,0,0,0,0,0,0,0,
0,0,2050,-98,-18,-6,-17,7,56,0,0,0,0,0,0,0,0,0,0,0,
0,0,2041,-105,-21,-10,-14,6,34,0,0,0,0,0,0,0,0,0,0,0,
0,0,2045,-108,-14,-7,-20,4,37,0,0,0,0,0,0,0,0,0,0,0,
0,0,2044,-101,-20,-8,-17,2,37,0,0,0,0,0,0,0,0,0,0,0,
0,0,2038,-94,-16,-7,-20,10,48,0,0,0,0,0,0,0,0,0,0,0,
0,0,2044,-101,-16,-8,-19,5,42,0,0,0,0,0,0,0,0,0,0,0,
0,0,2044,-100,-17,-7,-17,9,49,0,0,0,0,0,0,0,0,0,0,0,
0,0,2049,-106,-16,-6,-17,5,47,0,0,0,0,0,0,0,0,0,0,0,
0,0,2044,-98,-12,-6,-17,6,54,0,0,0,0,0,0,0,0,0,0,0,
0,0,2043,-96,-15,-6,-20,8,51,0,0,0,0,0,0,0,0,0,0,0,
0,0,2047,-98,-15,-2,-19,9,59,0,0,0,0,0,0,0,0,0,0,0,
0,0,2050,-91,-18,-10,-16,7,60,0,0,0,0,0,0,0,0,0,0,0,
0,0,2044,-95,-14,-6,-17,8,57,0,0,0,0,0,0,0,0,0,0,0,
0,0,2045,-97,-19,-7,-18,8,49,0,0,0,0,0,0,0,0,0,0,0,
0,0,2039,-99,-16,-6,-16,6,45,0,0,0,0,0,0,0,0,0,0,0,
0,0,2052,-99,-14,-7,-17,6,59,0,0,0,0,0,0,0,0,0,0,0,
0,0,2044,-97,-14,-6,-20,5,49,0,0,0,0,0,0,0,0,0,0,0,
0,0,2045,-100,-20,-6,-19,3,40,0,0,0,0,0,0,0,0,0,0,0,
0,0,2049,-106,-17,-6,-17,1,42,0,0,0,0,0,0,0,0,0,0,0,
0,0,2043,-96,-25,-5,-20,8,42,0,0,0,0,0,0,0,0,0,0,0,
0,0,2041,-102,-18,-10,-17,4,35,0,0,0,0,0,0,0,0,0,0,0,
0,0,2050,-104,-18,-5,-20,6,47,0,0,0,0,0,0,0,0,0,0,0,
0,0,2045,-101,-20,-5,-18,4,42,0,0,0,0,0,0,0,0,0,0,0,
0,0,2043,-92,-11,-6,-19,7,59,0,0,0,0,0,0,0,0,0,0,0,
0,0,2041,-101,-29,-6,-20,6,28,0,0,0,0,0,0,0,0,0,0,0,
0,0,2044,-100,-20,-6,-17,8,46,0,0,0,0,0,0,0,0,0,0,0,
0,0,2042,-99,-18,-6,-22,5,39,0,0,0,0,0,0,0,0,0,0,0,
0,0,2043,-103,-17,-6,-14,6,46,0,0,0,0,0,0,0,0,0,0,0,
0,0,2051,-101,-11,-7,-20,5,55,0,0,0,0,0,0,0,0,0,0,0,
0,0,2046,-98,-16,-6,-18,2,47,0,0,0,0,0,0,0,0,0,0,0,
0,0,2043,-106,-19,-6,-17,6,38,0,0,0,0,0,0,0,0,0,0,0,
0,0,2045,-102,-18,-3,-19,10,50,0,0,0,0,0,0,0,0,0,0,0,
0,0,2046,-108,-14,-8,-18,4,39,0,0,0,0,0,0,0,0,0,0,0,
0,0,2046,-96,-19,-7,-19,4,46,0,0,0,0,0,0,0,0,0,0,0,
0,0,2048,-101,-15,-4,-16,6,56,0,0,0,0,0,0,0,0,0,0,0,
0,0,2043,-99,-17,-6,-18,4,44,0,0,0,0,0,0,0,0,0,0,0,
0,0,2044,-99,-24,-8,-16,4,38,0,0,0,0,0,0,0,0,0,0,0,
0,0,2048,-107,-19,-5,-16,2,41,0,0,0,0,0,0,0,0,0,0,0,
0,0,2046,-106,-22,-6,-18,4,35,0,0,0,0,0,0,0,0,0,0,0,
0,0,2037,-98,-20,-6,-16,5,39,0,0,0,0,0,0,0,0,0,0,0,
0,0,2046,-101,-24,-10,-21,5,32,0,0,0,0,0,0,0,0,0,0,0,
0,0,2046,-101,-22,-8,-18,6,40,0,0,0,0,0,0,0,0,0,0,0,
0,0,2048,-103,-21,-6,-18,7,45,0,0,0,0,0,0,0,0,0,0,0,
0,0,2043,-97,-15,-8,-21,7,46,0,0,0,0,0,0,0,0,0,0,0,
0,0,2048,-101,-17,-7,-18,5,48,0,0,0,0,0,0,0,0,0,0,0,
0,0,2048,-101,-19,-7,-17,6,48,0,0,0,0,0,0,0,0,0,0,0,
0,0,2046,-104,-22,-7,-19,4,35,0,0,0,0,0,0,0,0,0,0,0,
0,0,2045,-94,-15,-4,-15,2,56,0,0,0,0,0,0,0,0,0,0,0,
0,0,2050,-99,-17,-5,-20,5,52,0,0,0,0,0,0,0,0,0,0,0,
0,0,2046,-98,-17,-5,-20,7,50,0,0,0,0,0,0,0,0,0,0,0,
0,0,2050,-97,-23,-4,-18,7,53,0,0,0,0,0,0,0,0,0,0,0,
0,0,2054,-105,-22,-6,-18,8,49,0,0,0,0,0,0,0,0,0,0,0,
0,0,2042,-105,-16,-8,-20,6,36,0,0,0,0,0,0,0,0,0,0,0,
0,0,2041,-98,-12,-7,-17,3,47,0,0,0,0,0,0,0,0,0,0,0,
0,0,2047,-100,-27,-7,-17,8,41,0,0,0,0,0,0,0,0,0,0,0,
0,0,2046,-102,-17,-8,-17,6,45,0,0,0,0,0,0,0,0,0,0,0,
0,0,2042,-97,-19,-1,-18,6,50,0,0,0,0,0,0,0,0,0,0,0,
0,0,2040,-98,-20,-6,-15,5,43,0,0,0,0,0,0,0,0,0,0,0,
0,0,2046,-97,-13,-8,-17,10,58,0,0,0,0,0,0,0,0,0,0,0,
0,0,2040,-100,-17,-10,-17,2,35,0,0,0,0,0,0,0,0,0,0,0,
0,0,2049,-96,-20,-9,-19,5,48,0,0,0,0,0,0,0,0,0,0,0,
0,0,2048,-104,-9,-6,-17,6,56,0,0,0,0,0,0,0,0,0,0,0,
0,0,2047,-99,-15,-5,-18,3,50,0,0,0,0,0,0,0,0,0,0,0,
0,0,2046,-107,-11,-8,-18,3,42,0,0,0,0,0,0,0,0,0,0,0,
0,0,2047,-100,-22,-7,-21,6,40,0,0,0,0,0,0,0,0,0,0,0,
0,0,2044,-99,-18,-5,-18,10,51,0,0,0,0,0,0,0,0,0,0,0,
0,0,2042,-99,-14,-8,-17,6,47,0,0,0,0,0,0,0,0,0,0,0,
0,0,2043,-104,-20,-8,-17,3,34,0,0,0,0,0,0,0,0,0,0,0,
0,0,2047,-99,-18,-5,-18,4,48,0,0,0,0,0,0,0,0,0,0,0,
0,0,2043,-95,-14,-4,-20,3,50,0,0,0,0,0,0,0,0,0,0,0,
0,0,2045,-97,-25,-6,-15,7,46,0,0,0,0,0,0,0,0,0,0,0,
0,0,2046,-94,-20,-7,-18,6,50,0,0,0,0,0,0,0,0,0,0,0,
0,0,2043,-100,-14,-5,-18,7,50,0,0,0,0,0,0,0,0,0,0,0,
0,0,2049,-99,-20,-7,-20,3,44,0,0,0,0,0,0,0,0,0,0,0,
0,0,2047,-101,-17,-7,-20,5,44,0,0,0,0,0,0,0,0,0,0,0,
0,0,2043,-101,-21,-8,-18,6,38,0,0,0,0,0,0,0,0,0,0,0,
0,0,2048,-105,-21,-9,-18,5,38,0,0,0,0,0,0,0,0,0,0,0,
0,0,2040,-104,-18,-5,-18,7,39,0,0,0,0,0,0,0,0,0,0,0,
0,0,2040,-104,-18,-5,-18,7,39,0,0,0,0,0,0,0,0,0,0,0,
0,0,2046,-93,-12,-6,-16,6,62,0,0,0,0,0,0,0,0,0,0,0,
0,0,2046,-98,-20,-7,-20,4,42,0,0,0,0,0,0,0,0,0,0,0,
0,0,2045,-106,-15,-4,-19,8,46,0,0,0,0,0,0,0,0,0,0,0,
0,0,2045,-106,-15,-4,-19,8,46,0,0,0,0,0,0,0,0,0,0,0,
0,0,2043,-96,-18,-6,-16,6,50,0,0,0,0,0,0,0,0,0,0,0,
0,0,2043,-96,-18,-8,-17,5,46,0,0,0,0,0,0,0,0,0,0,0,
0,0,2043,-98,-17,-8,-18,5,44,0,0,0,0,0,0,0,0,0,0,0,
0,0,2047,-106,-20,-6,-21,6,37,0,0,0,0,0,0,0,0,0,0,0,
0,0,2043,-100,-18,-8,-18,7,43,0,0,0,0,0,0,0,0,0,0,0,
0,0,2043,-100,-18,-8,-18,3,39,0,0,0,0,0,0,0,0,0,0,0,
0,0,2041,-103,-14,-8,-15,5,43,0,0,0,0,0,0,0,0,0,0,0,
0,0,2048,-93,-19,-7,-20,6,53,0,0,0,0,0,0,0,0,0,0,0,
0,0,2045,-101,-21,-3,-22,4,39,0,0,0,0,0,0,0,0,0,0,0,
0,0,2042,-100,-19,-9,-19,2,34,0,0,0,0,0,0,0,0,0,0,0,
0,0,2046,-103,-19,-7,-19,7,42,0,0,0,0,0,0,0,0,0,0,0,
0,0,2055,-102,-16,-3,-21,2,53,0,0,0,0,0,0,0,0,0,0,0,
0,0,2044,-95,-18,-8,-16,8,52,0,0,0,0,0,0,0,0,0,0,0,
0,0,2046,-97,-14,-10,-19,6,49,0,0,0,0,0,0,0,0,0,0,0,
0,0,2045,-96,-11,-4,-20,7,58,0,0,0,0,0,0,0,0,0,0,0,
0,0,2044,-97,-18,-9,-20,6,43,0,0,0,0,0,0,0,0,0,0,0,
0,0,2050,-102,-14,-7,-17,1,49,0,0,0,0,0,0,0,0,0,0,0,
0,0,2052,-103,-24,-5,-22,7,43,0,0,0,0,0,0,0,0,0,0,0,
0,0,2047,-100,-14,-7,-17,6,52,0,0,0,0,0,0,0,0,0,0,0,
0,0,2042,-99,-20,-11,-21,5,33,0,0,0,0,0,0,0,0,0,0,0,
0,0,2046,-97,-17,-8,-17,3,47,0,0,0,0,0,0,0,0,0,0,0,
0,0,2045,-104,-23,-5,-20,5,35,0,0,0,0,0,0,0,0,0,0,0,
0,0,2041,-103,-23,-5,-21,6,32,0,0,0,0,0,0,0,0,0,0,0,
0,0,2052,-105,-13,-7,-18,2,49,0,0,0,0,0,0,0,0,0,0,0,
0,0,2045,-107,-22,-6,-20,6,33,0,0,0,0,0,0,0,0,0,0,0,
0,0,2047,-107,-17,-4,-16,11,51,0,0,0,0,0,0,0,0,0,0,0,
0,0,2049,-101,-21,-9,-20,3,39,0,0,0,0,0,0,0,0,0,0,0,
0,0,2051,-98,-20,-6,-17,4,52,0,0,0,0,0,0,0,0,0,0,0,
0,0,2047,-94,-22,-5,-18,5,50,0,0,0,0,0,0,0,0,0,0,0,
0,0,2047,-109,-15,-6,-22,8,40,0,0,0,0,0,0,0,0,0,0,0,
0,0,2043,-97,-15,-4,-17,2,49,0,0,0,0,0,0,0,0,0,0,0,
0,0,2047,-100,-18,-9,-17,6,46,0,0,0,0,0,0,0,0,0,0,0,
0,0,2043,-95,-15,-7,-19,4,48,0,0,0,0,0,0,0,0,0,0,0,
0,0,2047,-101,-17,-4,-18,7,51,0,0,0,0,0,0,0,0,0,0,0,
0,0,2046,-105,-6,-7,-17,6,54,0,0,0,0,0,0,0,0,0,0,0,
0,0,2055,-99,-14,-9,-19,3,55,0,0,0,0,0,0,0,0,0,0,0,
0,0,2048,-94,-17,-7,-19,2,51,0,0,0,0,0,0,0,0,0,0,0,
0,0,2044,-104,-19,-7,-18,6,39,0,0,0,0,0,0,0,0,0,0,0,
0,0,2046,-102,-19,-10,-18,5,39,0,0,0,0,0,0,0,0,0,0,0,
0,0,2043,-102,-10,-7,-19,5,47,0,0,0,0,0,0,0,0,0,0,0,
0,0,2041,-99,-15,-6,-16,6,48,0,0,0,0,0,0,0,0,0,0,0,
0,0,2047,-94,-20,-8,-16,6,52,0,0,0,0,0,0,0,0,0,0,0,
0,0,2034,-101,-23,-9,-17,5,26,0,0,0,0,0,0,0,0,0,0,0,
0,0,2044,-89,-15,-7,-19,4,55,0,0,0,0,0,0,0,0,0,0,0,
0,0,2041,-93,-20,-6,-16,5,48,0,0,0,0,0,0,0,0,0,0,0,
0,0,2043,-96,-19,-4,-20,7,48,0,0,0,0,0,0,0,0,0,0,0,
0,0,2046,-98,-17,-8,-17,2,45,0,0,0,0,0,0,0,0,0,0,0,
0,0,2048,-99,-17,-7,-19,5,49,0,0,0,0,0,0,0,0,0,0,0,
0,0,2045,-99,-24,-7,-19,6,39,0,0,0,0,0,0,0,0,0,0,0,
0,0,2049,-97,-17,-4,-16,6,59,0,0,0,0,0,0,0,0,0,0,0,
0,0,2052,-100,-20,-6,-18,4,50,0,0,0,0,0,0,0,0,0,0,0,
0,0,2049,-101,-14,-7,-20,6,51,0,0,0,0,0,0,0,0,0,0,0,
0,0,2041,-101,-15,-6,-16,6,46,0,0,0,0,0,0,0,0,0,0,0,
0,0,2048,-94,-17,-8,-18,6,55,0,0,0,0,0,0,0,0,0,0,0,
0,0,2048,-102,-16,-4,-14,5,55,0,0,0,0,0,0,0,0,0,0,0,
0,0,2045,-93,-11,-10,-21,5,52,0,0,0,0,0,0,0,0,0,0,0,
0,0,2048,-92,-19,-5,-18,6,58,0,0,0,0,0,0,0,0,0,0,0,
0,0,2041,-101,-17,-6,-20,9,43,0,0,0,0,0,0,0,0,0,0,0,
0,0,2048,-100,-15,-6,-17,2,50,0,0,0,0,0,0,0,0,0,0,0,
0,0,2043,-102,-13,-9,-19,4,41,0,0,0,0,0,0,0,0,0,0,0,
0,0,2046,-97,-12,-8,-19,7,54,0,0,0,0,0,0,0,0,0,0,0,
0,0,2051,-94,-15,-6,-18,4,60,0,0,0,0,0,0,0,0,0,0,0,
0,0,2042,-106,-22,-8,-17,1,27,0,0,0,0,0,0,0,0,0,0,0,
0,0,2044,-105,-19,-5,-19,7,40,0,0,0,0,0,0,0,0,0,0,0,
0,0,2048,-95,-15,-9,-20,8,55,0,0,0,0,0,0,0,0,0,0,0,
0,0,2045,-91,-9,-8,-18,4,60,0,0,0,0,0,0,0,0,0,0,0,
0,0,2049,-99,-18,-6,-18,6,52,0,0,0,0,0,0,0,0,0,0,0,
0,0,2046,-89,-21,-5,-17,5,56,0,0,0,0,0,0,0,0,0,0,0,
0,0,2052,-95,-19,-7,-19,7,57,0,0,0,0,0,0,0,0,0,0,0,
0,0,2050,-100,-16,-7,-16,6,55,0,0,0,0,0,0,0,0,0,0,0,
0,0,2042,-97,-12,-10,-19,4,45,0,0,0,0,0,0,0,0,0,0,0,
0,0,2049,-99,-19,-6,-21,10,52,0,0,0,0,0,0,0,0,0,0,0,
0,0,2042,-96,-18,-5,-17,8,51,0,0,0,0,0,0,0,0,0,0,0,
0,0,2044,-104,-20,-6,-19,11,43,0,0,0,0,0,0,0,0,0,0,0,
0,0,2049,-99,-23,-8,-20,4,41,0,0,0,0,0,0,0,0,0,0,0,
0,0,2045,-101,-21,-4,-16,4,44,0,0,0,0,0,0,0,0,0,0,0,
0,0,2053,-103,-21,-7,-20,6,46,0,0,0,0,0,0,0,0,0,0,0,
0,0,2039,-99,-19,-5,-18,5,40,0,0,0,0,0,0,0,0,0,0,0,
0,0,2044,-95,-23,-7,-19,8,45,0,0,0,0,0,0,0,0,0,0,0,
0,0,2047,-103,-14,-3,-18,9,55,0,0,0,0,0,0,0,0,0,0,0,
0,0,2045,-98,-19,-5,-20,8,48,0,0,0,0,0,0,0,0,0,0,0,
0,0,2042,-98,-15,-5,-18,6,49,0,0,0,0,0,0,0,0,0,0,0,
0,0,2052,-96,-13,-9,-22,8,58,0,0,0,0,0,0,0,0,0,0,0,
0,0,2045,-97,-17,-8,-17,6,49,0,0,0,0,0,0,0,0,0,0,0,
0,0,2049,-99,-9,-5,-19,5,60,0,0,0,0,0,0,0,0,0,0,0,
0,0,2047,-98,-15,-6,-16,7,56,0,0,0,0,0,0,0,0,0,0,0,
0,0,2046,-107,-17,-4,-20,6,41,0,0,0,0,0,0,0,0,0,0,0,
0,0,2044,-97,-16,-11,-19,5,43,0,0,0,0,0,0,0,0,0,0,0,
0,0,2050,-102,-23,-7,-19,4,41,0,0,0,0,0,0,0,0,0,0,0,
0,0,2038,-104,-19,-5,-16,2,33,0,0,0,0,0,0,0,0,0,0,0,
0,0,2042,-103,-19,-8,-20,7,36,0,0,0,0,0,0,0,0,0,0,0,
0,0,2042,-101,-20,-8,-19,5,36,0,0,0,0,0,0,0,0,0,0,0,
0,0,2044,-96,-16,-6,-18,8,53,0,0,0,0,0,0,0,0,0,0,0,
0,0,2048,-101,-18,-8,-18,2,43,0,0,0,0,0,0,0,0,0,0,0,
0,0,2045,-96,-22,-9,-15,4,44,0,0,0,0,0,0,0,0,0,0,0,
0,0,2044,-100,-19,-8,-18,8,44,0,0,0,0,0,0,0,0,0,0,0,
0,0,2045,-98,-16,-3,-17,7,55,0,0,0,0,0,0,0,0,0,0,0,
0,0,2043,-96,-21,-6,-17,4,44,0,0,0,0,0,0,0,0,0,0,0,
0,0,2045,-101,-23,-6,-19,1,34,0,0,0,0,0,0,0,0,0,0,0,
0,0,2046,-97,-18,-9,-19,3,43,0,0,0,0,0,0,0,0,0,0,0,
0,0,2042,-95,-14,-8,-20,4,46,0,0,0,0,0,0,0,0,0,0,0,
0,0,2049,-103,-23,-6,-21,9,43,0,0,0,0,0,0,0,0,0,0,0,
0,0,2046,-104,-20,-7,-21,4,35,0,0,0,0,0,0,0,0,0,0,0,
0,0,2050,-94,-18,-4,-20,4,56,0,0,0,0,0,0,0,0,0,0,0,
0,0,2047,-101,-10,-3,-14,6,62,0,0,0,0,0,0,0,0,0,0,0,
0,0,2047,-101,-10,-3,-14,6,62,0,0,0,0,0,0,0,0,0,0,0,
0,0,2053,-99,-14,-6,-18,4,58,0,0,0,0,0,0,0,0,0,0,0,
0,0,2048,-96,-15,-4,-18,4,57,0,0,0,0,0,0,0,0,0,0,0,
0,0,2045,-102,-20,-8,-19,6,39,0,0,0,0,0,0,0,0,0,0,0,
0,0,2045,-102,-20,-8,-19,6,39,0,0,0,0,0,0,0,0,0,0,0,
0,0,2042,-98,-17,-7,-20,8,45,0,0,0,0,0,0,0,0,0,0,0,
0,0,2046,-102,-18,-6,-19,7,45,0,0,0,0,0,0,0,0,0,0,0,
0,0,2037,-97,-20,-9,-17,2,33,0,0,0,0,0,0,0,0,0,0,0,
0,0,2051,-100,-23,-8,-20,6,44,0,0,0,0,0,0,0,0,0,0,0,
0,0,2042,-105,-16,-11,-18,5,34,0,0,0,0,0,0,0,0,0,0,0,
0,0,2042,-105,-16,-10,-21,4,31,0,0,0,0,0,0,0,0,0,0,0,
0,0,2045,-96,-14,-5,-21,6,52,0,0,0,0,0,0,0,0,0,0,0,
0,0,2051,-104,-20,-6,-17,7,49,0,0,0,0,0,0,0,0,0,0,0,
0,0,2050,-94,-13,-9,-20,8,60,0,0,0,0,0,0,0,0,0,0,0,
0,0,2050,-105,-13,-7,-18,8,53,0,0,0,0,0,0,0,0,0,0,0,
0,0,2047,-100,-12,-10,-18,4,48,0,0,0,0,0,0,0,0,0,0,0,
0,0,2050,-94,-12,-6,-17,7,66,0,0,0,0,0,0,0,0,0,0,0,
0,0,2046,-97,-22,-10,-18,3,39,0,0,0,0,0,0,0,0,0,0,0,
0,0,2044,-95,-14,-6,-17,7,56,0,0,0,0,0,0,0,0,0,0,0,
0,0,2036,-102,-21,-10,-19,1,22,0,0,0,0,0,0,0,0,0,0,0,
0,0,2046,-103,-20,-7,-19,7,41,0,0,0,0,0,0,0,0,0,0,0,
0,0,2050,-96,-15,-8,-16,6,59,0,0,0,0,0,0,0,0,0,0,0,
0,0,2045,-100,-13,-3,-21,6,51,0,0,0,0,0,0,0,0,0,0,0,
0,0,2050,-100,-13,-4,-16,6,61,0,0,0,0,0,0,0,0,0,0,0,
0,0,2042,-96,-19,-10,-21,8,41,0,0,0,0,0,0,0,0,0,0,0,
0,0,2047,-103,-13,-6,-17,6,51,0,0,0,0,0,0,0,0,0,0,0,
0,0,2049,-107,-15,-7,-20,3,41,0,0,0,0,0,0,0,0,0,0,0,
0,0,2048,-102,-16,-9,-20,4,43,0,0,0,0,0,0,0,0,0,0,0,
0,0,2049,-94,-14,-3,-19,7,64,0,0,0,0,0,0,0,0,0,0,0,
0,0,2048,-95,-20,-12,-20,4,43,0,0,0,0,0,0,0,0,0,0,0,
0,0,2041,-106,-24,-5,-19,6,30,0,0,0,0,0,0,0,0,0,0,0,
0,0,2044,-101,-15,-7,-18,7,47,0,0,0,0,0,0,0,0,0,0,0,
0,0,2044,-101,-15,-6,-18,5,46,0,0,0,0,0,0,0,0,0,0,0,
0,0,2051,-107,-12,-6,-21,3,46,0,0,0,0,0,0,0,0,0,0,0,
0,0,2043,-94,-22,-6,-19,6,45,0,0,0,0,0,0,0,0,0,0,0,
0,0,2040,-102,-15,-8,-17,5,40,0,0,0,0,0,0,0,0,0,0,0,
0,0,2043,-101,-12,-6,-16,7,52,0,0,0,0,0,0,0,0,0,0,0,
0,0,2048,-97,-20,-4,-15,6,56,0,0,0,0,0,0,0,0,0,0,0,
0,0,2046,-96,-12,-7,-19,6,55,0,0,0,0,0,0,0,0,0,0,0,
0,0,2045,-96,-22,-8,-16,8,48,0,0,0,0,0,0,0,0,0,0,0,
0,0,2046,-94,-9,-9,-17,5,59,0,0,0,0,0,0,0,0,0,0,0,
0,0,2046,-95,-20,-8,-18,7,49,0,0,0,0,0,0,0,0,0,0,0,
0,0,2047,-102,-23,-9,-17,3,36,0,0,0,0,0,0,0,0,0,0,0,
0,0,2043,-96,-14,-7,-17,10,56,0,0,0,0,0,0,0,0,0,0,0,
0,0,2044,-99,-15,-10,-17,7,47,0,0,0,0,0,0,0,0,0,0,0,
0,0,2044,-100,-24,-5,-16,4,40,0,0,0,0,0,0,0,0,0,0,0,
0,0,2050,-99,-21,-8,-18,9,51,0,0,0,0,0,0,0,0,0,0,0,
0,0,2047,-109,-12,-9,-17,3,40,0,0,0,0,0,0,0,0,0,0,0,
0,0,2052,-99,-11,-8,-20,6,58,0,0,0,0,0,0,0,0,0,0,0,
0,0,2047,-94,-11,-5,-16,5,63,0,0,0,0,0,0,0,0,0,0,0,
0,0,2048,-93,-19,-4,-18,6,58,0,0,0,0,0,0,0,0,0,0,0,
0,0,2035,-93,-20,-6,-17,2,38,0,0,0,0,0,0,0,0,0,0,0,
0,0,2040,-97,-18,-8,-20,4,38,0,0,0,0,0,0,0,0,0,0,0,
0,0,2042,-97,-21,-5,-18,5,43,0,0,0,0,0,0,0,0,0,0,0,
0,0,2040,-104,-23,-5,-16,5,34,0,0,0,0,0,0,0,0,0,0,0,
0,0,2046,-96,-25,-5,-19,6,44,0,0,0,0,0,0,0,0,0,0,0,
0,0,2042,-103,-24,-7,-20,4,29,0,0,0,0,0,0,0,0,0,0,0,
0,0,2047,-99,-18,-6,-18,6,49,0,0,0,0,0,0,0,0,0,0,0,
0,0,2049,-102,-15,-2,-20,6,54,0,0,0,0,0,0,0,0,0,0,0,
0,0,2046,-94,-12,-7,-19,6,57,0,0,0,0,0,0,0,0,0,0,0,
0,0,2045,-102,-18,-5,-18,4,43,0,0,0,0,0,0,0,0,0,0,0,
0,0,2041,-104,-10,-9,-18,5,42,0,0,0,0,0,0,0,0,0,0,0,
0,0,2051,-102,-20,-8,-19,6,46,0,0,0,0,0,0,0,0,0,0,0,
0,0,2045,-100,-12,-4,-19,5,52,0,0,0,0,0,0,0,0,0,0,0,
0,0,2048,-101,-20,-7,-16,3,45,0,0,0,0,0,0,0,0,0,0,0,
0,0,2040,-104,-26,-6,-15,4,30,0,0,0,0,0,0,0,0,0,0,0,
0,0,2043,-98,-18,-7,-17,5,45,0,0,0,0,0,0,0,0,0,0,0,
0,0,2045,-100,-20,-8,-20,1,35,0,0,0,0,0,0,0,0,0,0,0,
0,0,2038,-98,-13,-6,-18,4,44,0,0,0,0,0,0,0,0,0,0,0,
0,0,2051,-103,-14,-7,-18,7,54,0,0,0,0,0,0,0,0,0,0,0,
0,0,2046,-98,-22,-7,-18,9,47,0,0,0,0,0,0,0,0,0,0,0,
0,0,2044,-106,-16,-6,-17,5,41,0,0,0,0,0,0,0,0,0,0,0,
0,0,2048,-100,-16,-8,-18,4,48,0,0,0,0,0,0,0,0,0,0,0,
0,0,2047,-102,-19,-6,-17,8,48,0,0,0,0,0,0,0,0,0,0,0,
0,0,2046,-98,-18,-7,-21,7,46,0,0,0,0,0,0,0,0,0,0,0,
0,0,2053,-93,-24,-4,-18,7,59,0,0,0,0,0,0,0,0,0,0,0,
0,0,2046,-99,-21,-7,-16,7,47,0,0,0,0,0,0,0,0,0,0,0,
0,0,2041,-102,-15,-6,-20,7,42,0,0,0,0,0,0,0,0,0,0,0,
0,0,2044,-103,-23,-6,-17,8,40,0,0,0,0,0,0,0,0,0,0,0,
0,0,2044,-100,-24,-4,-16,4,41,0,0,0,0,0,0,0,0,0,0,0,
0,0,2046,-96,-11,-6,-16,3,57,0,0,0,0,0,0,0,0,0,0,0,
0,0,2045,-100,-18,-9,-17,5,43,0,0,0,0,0,0,0,0,0,0,0,
0,0,2052,-100,-23,-9,-20,5,43,0,0,0,0,0,0,0,0,0,0,0,
0,0,2043,-101,-14,-4,-17,6,50,0,0,0,0,0,0,0,0,0,0,0,
0,0,2051,-105,-13,-5,-18,3,51,0,0,0,0,0,0,0,0,0,0,0,
0,0,2047,-106,-17,-6,-20,10,45,0,0,0,0,0,0,0,0,0,0,0,
0,0,2047,-104,-12,-7,-16,5,50,0,0,0,0,0,0,0,0,0,0,0,
0,0,2045,-95,-28,-1,-19,8,47,0,0,0,0,0,0,0,0,0,0,0,
0,0,2049,-98,-16,-7,-20,5,51,0,0,0,0,0,0,0,0,0,0,0,
0,0,2046,-102,-21,-6,-17,9,46,0,0,0,0,0,0,0,0,0,0,0,
0,0,2043,-103,-15,-8,-16,8,46,0,0,0,0,0,0,0,0,0,0,0,
0,0,2043,-94,-18,-8,-19,5,46,0,0,0,0,0,0,0,0,0,0,0,
0,0,2041,-98,-13,-7,-18,4,46,0,0,0,0,0,0,0,0,0,0,0,
0,0,2045,-102,-17,-8,-19,6,42,0,0,0,0,0,0,0,0,0,0,0,
0,0,2047,-101,-22,-8,-19,8,42,0,0,0,0,0,0,0,0,0,0,0,
0,0,2047,-95,-15,-6,-18,2,52,0,0,0,0,0,0,0,0,0,0,0,
0,0,2044,-93,-21,-4,-18,8,53,0,0,0,0,0,0,0,0,0,0,0,
0,0,2053,-99,-16,-1,-19,6,62,0,0,0,0,0,0,0,0,0,0,0,
0,0,2043,-104,-22,-6,-18,5,35,0,0,0,0,0,0,0,0,0,0,0,
0,0,2046,-101,-14,-6,-19,7,50,0,0,0,0,0,0,0,0,0,0,0,
0,0,2049,-106,-12,-7,-19,5,48,0,0,0,0,0,0,0,0,0,0,0,
0,0,2043,-97,-21,-9,-18,3,38,0,0,0,0,0,0,0,0,0,0,0,
0,0,2047,-101,-14,-6,-20,7,50,0,0,0,0,0,0,0,0,0,0,0,
0,0,2045,-100,-20,-9,-16,4,41,0,0,0,0,0,0,0,0,0,0,0,
0,0,2047,-99,-22,-5,-18,4,44,0,0,0,0,0,0,0,0,0,0,0,
0,0,2048,-97,-21,-8,-20,6,46,0,0,0,0,0,0,0,0,0,0,0,
0,0,2042,-93,-13,-6,-18,8,57,0,0,0,0,0,0,0,0,0,0,0,
0,0,2050,-96,-16,-7,-19,7,57,0,0,0,0,0,0,0,0,0,0,0,
0,0,2050,-96,-16,-7,-19,7,57,0,0,0,0,0,0,0,0,0,0,0,
0,0,2048,-102,-16,-4,-19,5,50,0,0,0,0,0,0,0,0,0,0,0,
0,0,2047,-91,-21,-5,-20,8,55,0,0,0,0,0,0,0,0,0,0,0,
0,0,2045,-92,-20,-5,-21,8,52,0,0,0,0,0,0,0,0,0,0,0,
0,0,2045,-99,-15,-4,-18,6,52,0,0,0,0,0,0,0,0,0,0,0,
0,0,2045,-99,-15,-7,-21,10,50,0,0,0,0,0,0,0,0,0,0,0,
0,0,2049,-104,-17,-6,-20,7,47,0,0,0,0,0,0,0,0,0,0,0,
0,0,2046,-100,-19,-8,-17,5,44,0,0,0,0,0,0,0,0,0,0,0,
0,0,2041,-103,-16,-6,-21,7,39,0,0,0,0,0,0,0,0,0,0,0,
0,0,2041,-103,-16,-6,-18,2,37,0,0,0,0,0,0,0,0,0,0,0,
0,0,2042,-95,-16,-9,-16,6,49,0,0,0,0,0,0,0,0,0,0,0,
0,0,2045,-96,-9,-7,-22,5,53,0,0,0,0,0,0,0,0,0,0,0,
0,0,2049,-99,-19,-5,-18,5,51,0,0,0,0,0,0,0,0,0,0,0,
0,0,2046,-97,-19,-7,-20,3,43,0,0,0,0,0,0,0,0,0,0,0,
0,0,2048,-104,-19,-9,-20,7,41,0,0,0,0,0,0,0,0,0,0,0,
0,0,2044,-105,-14,-5,-16,4,45,0,0,0,0,0,0,0,0,0,0,0,
0,0,2043,-104,-20,-5,-18,7,40,0,0,0,0,0,0,0,0,0,0,0,
0,0,2044,-108,-21,-6,-15,2,33,0,0,0,0,0,0,0,0,0,0,0,
0,0,2046,-103,-20,-9,-18,5,38,0,0,0,0,0,0,0,0,0,0,0,
0,0,2048,-102,-13,-3,-15,5,58,0,0,0,0,0,0,0,0,0,0,0,
0,0,2049,-97,-14,-8,-20,5,53,0,0,0,0,0,0,0,0,0,0,0,
0,0,2042,-94,-23,-4,-18,6,46,0,0,0,0,0,0,0,0,0,0,0,
0,0,2052,-100,-15,-10,-16,5,54,0,0,0,0,0,0,0,0,0,0,0,
0,0,2049,-101,-18,-6,-18,4,48,0,0,0,0,0,0,0,0,0,0,0,
0,0,2043,-95,-20,-7,-18,7,47,0,0,0,0,0,0,0,0,0,0,0,
0,0,2055,-96,-19,-7,-18,3,56,0,0,0,0,0,0,0,0,0,0,0,
0,0,2048,-104,-26,-5,-18,4,37,0,0,0,0,0,0,0,0,0,0,0,
0,0,2047,-106,-15,-9,-20,5,39,0,0,0,0,0,0,0,0,0,0,0,
0,0,2054,-102,-17,-4,-16,6,59,0,0,0,0,0,0,0,0,0,0,0,
0,0,2039,-105,-21,-7,-18,5,30,0,0,0,0,0,0,0,0,0,0,0,
0,0,2042,-103,-19,-8,-20,4,33,0,0,0,0,0,0,0,0,0,0,0,
0,0,2041,-100,-13,-5,-15,5,50,0,0,0,0,0,0,0,0,0,0,0,
0,0,2044,-100,-16,-6,-17,9,51,0,0,0,0,0,0,0,0,0,0,0,
0,0,2051,-103,-16,-5,-19,5,51,0,0,0,0,0,0,0,0,0,0,0,
0,0,2045,-99,-14,-9,-19,4,45,0,0,0,0,0,0,0,0,0,0,0,
0,0,2045,-98,-23,-9,-16,6,42,0,0,0,0,0,0,0,0,0,0,0,
0,0,2050,-107,-15,-7,-19,8,48,0,0,0,0,0,0,0,0,0,0,0,
0,0,2044,-101,-14,-5,-16,7,52,0,0,0,0,0,0,0,0,0,0,0,
0,0,2047,-101,-18,-7,-18,3,43,0,0,0,0,0,0,0,0,0,0,0,
0,0,2044,-101,-17,-6,-16,6,47,0,0,0,0,0,0,0,0,0,0,0,
0,0,2045,-98,-14,-7,-18,4,49,0,0,0,0,0,0,0,0,0,0,0,
0,0,2049,-101,-19,-6,-17,7,51,0,0,0,0,0,0,0,0,0,0,0,
0,0,2039,-103,-20,-6,-16,8,39,0,0,0,0,0,0,0,0,0,0,0,
0,0,2045,-97,-18,-7,-19,5,46,0,0,0,0,0,0,0,0,0,0,0,
0,0,2044,-102,-15,-6,-20,7,45,0,0,0,0,0,0,0,0,0,0,0,
0,0,2043,-92,-19,-10,-19,4,44,0,0,0,0,0,0,0,0,0,0,0,
0,0,2044,-104,-17,-7,-22,5,36,0,0,0,0,0,0,0,0,0,0,0,
0,0,2040,-109,-15,-6,-19,10,38,0,0,0,0,0,0,0,0,0,0,0,
0,0,2049,-100,-18,-6,-15,6,54,0,0,0,0,0,0,0,0,0,0,0,
0,0,2047,-100,-16,-10,-19,7,46,0,0,0,0,0,0,0,0,0,0,0,
0,0,2041,-94,-19,-6,-19,5,45,0,0,0,0,0,0,0,0,0,0,0,
0,0,2045,-96,-17,-7,-21,5,46,0,0,0,0,0,0,0,0,0,0,0,
0,0,2043,-102,-16,-6,-18,5,43,0,0,0,0,0,0,0,0,0,0,0,
0,0,2047,-104,-15,-4,-18,5,48,0,0,0,0,0,0,0,0,0,0,0,
0,0,2050,-103,-23,-9,-20,6,39,0,0,0,0,0,0,0,0,0,0,0,
0,0,2046,-103,-17,-4,-18,4,45,0,0,0,0,0,0,0,0,0,0,0,
0,0,2040,-102,-17,-9,-17,5,37,0,0,0,0,0,0,0,0,0,0,0,
0,0,2050,-95,-15,-8,-20,8,58,0,0,0,0,0,0,0,0,0,0,0,
0,0,2051,-101,-14,-7,-18,4,53,0,0,0,0,0,0,0,0,0,0,0,
0,0,2046,-101,-18,-7,-19,5,43,0,0,0,0,0,0,0,0,0,0,0,
0,0,2046,-108,-22,-7,-19,3,30,0,0,0,0,0,0,0,0,0,0,0,
0,0,2050,-101,-13,-6,-18,3,53,0,0,0,0,0,0,0,0,0,0,0,
0,0,2049,-92,-19,-4,-17,10,65,0,0,0,0,0,0,0,0,0,0,0,
0,0,2045,-94,-17,-5,-18,7,55,0,0,0,0,0,0,0,0,0,0,0,
0,0,2044,-103,-23,-11,-20,5,29,0,0,0,0,0,0,0,0,0,0,0,
0,0,2044,-106,-25,-8,-18,4,28,0,0,0,0,0,0,0,0,0,0,0,
0,0,2047,-104,-25,-9,-18,4,32,0,0,0,0,0,0,0,0,0,0,0,
0,0,2045,-104,-13,-8,-19,6,44,0,0,0,0,0,0,0,0,0,0,0,
0,0,2051,-101,-23,-9,-20,8,44,0,0,0,0,0,0,0,0,0,0,0,
0,0,2047,-93,-22,-6,-19,5,49,0,0,0,0,0,0,0,0,0,0,0,
0,0,2048,-102,-21,-5,-19,7,46,0,0,0,0,0,0,0,0,0,0,0,
0,0,2052,-105,-23,-8,-20,8,42,0,0,0,0,0,0,0,0,0,0,0,
0,0,2052,-95,-16,-6,-16,4,61,0,0,0,0,0,0,0,0,0,0,0,
0,0,2047,-95,-17,-5,-16,4,55,0,0,0,0,0,0,0,0,0,0,0,
0,0,2041,-103,-20,-5,-19,9,40,0,0,0,0,0,0,0,0,0,0,0,
0,0,2046,-106,-8,-6,-20,9,52,0,0,0,0,0,0,0,0,0,0,0,
0,0,2045,-102,-19,-8,-18,5,40,0,0,0,0,0,0,0,0,0,0,0,
0,0,2049,-102,-21,-3,-18,5,48,0,0,0,0,0,0,0,0,0,0,0,
0,0,2041,-104,-22,-7,-17,9,37,0,0,0,0,0,0,0,0,0,0,0,
0,0,2053,-97,-21,-3,-22,11,59,0,0,0,0,0,0,0,0,0,0,0,
0,0,2038,-96,-14,-10,-22,5,38,0,0,0,0,0,0,0,0,0,0,0,
0,0,2042,-95,-10,-7,-19,5,53,0,0,0,0,0,0,0,0,0,0,0,
0,0,2039,-97,-13,-6,-20,7,47,0,0,0,0,0,0,0,0,0,0,0,
0,0,2046,-102,-14,-5,-18,5,49,0,0,0,0,0,0,0,0,0,0,0,
0,0,2045,-102,-15,-7,-19,1,40,0,0,0,0,0,0,0,0,0,0,0,
0,0,2047,-92,-15,-8,-22,7,54,0,0,0,0,0,0,0,0,0,0,0,
0,0,2047,-105,-15,-5,-19,3,43,0,0,0,0,0,0,0,0,0,0,0,
0,0,2048,-102,-18,-7,-19,4,44,0,0,0,0,0,0,0,0,0,0,0,
0,0,2049,-96,-17,-4,-20,2,52,0,0,0,0,0,0,0,0,0,0,0,
0,0,2047,-106,-17,-7,-19,5,40,0,0,0,0,0,0,0,0,0,0,0,
0,0,2049,-98,-19,-8,-18,5,49,0,0,0,0,0,0,0,0,0,0,0,
0,0,2051,-98,-14,-8,-21,4,52,0,0,0,0,0,0,0,0,0,0,0,
0,0,2038,-98,-19,-5,-18,7,42,0,0,0,0,0,0,0,0,0,0,0,
0,0,2047,-93,-23,-8,-19,7,48,0,0,0,0,0,0,0,0,0,0,0,
0,0,2039,-97,-16,-7,-17,6,45,0,0,0,0,0,0,0,0,0,0,0,
0,0,2049,-104,-19,-5,-21,6,44,0,0,0,0,0,0,0,0,0,0,0,
0,0,2044,-96,-20,-4,-18,6,49,0,0,0,0,0,0,0,0,0,0,0,
0,0,2045,-99,-14,-9,-20,3,43,0,0,0,0,0,0,0,0,0,0,0,
0,0,2039,-100,-16,-5,-17,8,46,0,0,0,0,0,0,0,0,0,0,0,
0,0,2045,-105,-11,-6,-17,8,51,0,0,0,0,0,0,0,0,0,0,0,
0,0,2045,-96,-12,-8,-18,4,52,0,0,0,0,0,0,0,0,0,0,0,
0,0,2044,-101,-19,-8,-18,6,41,0,0,0,0,0,0,0,0,0,0,0,
0,0,2050,-93,-14,-6,-17,9,67,0,0,0,0,0,0,0,0,0,0,0,
0,0,2040,-91,-15,-8,-18,3,48,0,0,0,0,0,0,0,0,0,0,0,
0,0,2039,-100,-17,-6,-18,5,40,0,0,0,0,0,0,0,0,0,0,0,
0,0,2046,-104,-12,-8,-19,4,44,0,0,0,0,0,0,0,0,0,0,0,
0,0,2049,-95,-14,-9,-19,7,57,0,0,0,0,0,0,0,0,0,0,0,
0,0,2042,-103,-19,-5,-17,4,39,0,0,0,0,0,0,0,0,0,0,0,
0,0,2041,-107,-17,-4,-16,5,39,0,0,0,0,0,0,0,0,0,0,0,
0,0,2041,-95,-17,-9,-19,9,47,0,0,0,0,0,0,0,0,0,0,0,
0,0,2041,-95,-17,-9,-19,9,47,0,0,0,0,0,0,0,0,0,0,0,
0,0,2043,-100,-15,-7,-20,10,48,0,0,0,0,0,0,0,0,0,0,0,
0,0,2050,-104,-19,-7,-17,2,43,0,0,0,0,0,0,0,0,0,0,0,
0,0,2044,-106,-16,-4,-21,6,40,0,0,0,0,0,0,0,0,0,0,0,
0,0,2052,-95,-16,-4,-21,6,60,0,0,0,0,0,0,0,0,0,0,0,
0,0,2052,-95,-16,-7,-16,5,61,0,0,0,0,0,0,0,0,0,0,0,
0,0,2042,-103,-17,-5,-19,7,42,0,0,0,0,0,0,0,0,0,0,0,
0,0,2048,-95,-9,-5,-18,4,63,0,0,0,0,0,0,0,0,0,0,0,
0,0,2050,-97,-20,-7,-19,3,48,0,0,0,0,0,0,0,0,0,0,0,
0,0,2050,-97,-20,-6,-18,6,53,0,0,0,0,0,0,0,0,0,0,0,
0,0,2047,-97,-17,-6,-16,2,50,0,0,0,0,0,0,0,0,0,0,0,
0,0,2039,-96,-20,-5,-17,4,42,0,0,0,0,0,0,0,0,0,0,0,
0,0,2052,-108,-7,-7,-19,6,55,0,0,0,0,0,0,0,0,0,0,0,
0,0,2043,-104,-21,-5,-17,5,38,0,0,0,0,0,0,0,0,0,0,0,
0,0,2049,-98,-19,-5,-19,6,52,0,0,0,0,0,0,0,0,0,0,0,
0,0,2039,-102,-17,-4,-20,6,39,0,0,0,0,0,0,0,0,0,0,0,
0,0,2052,-92,-15,-9,-20,4,58,0,0,0,0,0,0,0,0,0,0,0,
0,0,2041,-97,-18,-6,-18,6,45,0,0,0,0,0,0,0,0,0,0,0,
0,0,2047,-98,-12,-4,-18,9,61,0,0,0,0,0,0,0,0,0,0,0,
0,0,2051,-98,-15,-6,-18,5,57,0,0,0,0,0,0,0,0,0,0,0,
0,0,2051,-100,-22,-7,-22,3,41,0,0,0,0,0,0,0,0,0,0,0,
0,0,2046,-98,-21,-11,-18,3,38,0,0,0,0,0,0,0,0,0,0,0,
0,0,2044,-96,-25,-1,-18,7,48,0,0,0,0,0,0,0,0,0,0,0,
0,0,2045,-101,-13,-5,-19,7,51,0,0,0,0,0,0,0,0,0,0,0,
0,0,2046,-100,-14,-6,-17,6,52,0,0,0,0,0,0,0,0,0,0,0,
0,0,2052,-104,-18,-4,-19,8,53,0,0,0,0,0,0,0,0,0,0,0,
0,0,2044,-104,-16,-7,-20,5,39,0,0,0,0,0,0,0,0,0,0,0,
0,0,2047,-101,-17,-3,-20,9,52,0,0,0,0,0,0,0,0,0,0,0,
0,0,2046,-94,-17,-7,-19,4,50,0,0,0,0,0,0,0,0,0,0,0,
0,0,2051,-103,-12,-7,-18,3,52,0,0,0,0,0,0,0,0,0,0,0,
0,0,2047,-98,-18,-5,-18,6,51,0,0,0,0,0,0,0,0,0,0,0,
0,0,2041,-96,-15,-9,-17,7,48,0,0,0,0,0,0,0,0,0,0,0,
0,0,2044,-100,-17,-4,-18,6,48,0,0,0,0,0,0,0,0,0,0,0,
0,0,2044,-106,-16,-12,-20,7,34,0,0,0,0,0,0,0,0,0,0,0,
0,0,2044,-99,-17,-9,-16,7,47,0,0,0,0,0,0,0,0,0,0,0,
0,0,2044,-98,-18,-9,-18,6,44,0,0,0,0,0,0,0,0,0,0,0,
0,0,2044,-92,-16,-7,-19,5,52,0,0,0,0,0,0,0,0,0,0,0,
0,0,2048,-97,-13,-6,-18,4,56,0,0,0,0,0,0,0,0,0,0,0,
0,0,2044,-97,-12,-6,-21,7,52,0,0,0,0,0,0,0,0,0,0,0,
0,0,2049,-96,-20,-7,-22,4,46,0,0,0,0,0,0,0,0,0,0,0,
0,0,2045,-95,-11,-7,-19,6,56,0,0,0,0,0,0,0,0,0,0,0,
0,0,2047,-105,-20,-8,-17,6,40,0,0,0,0,0,0,0,0,0,0,0,
0,0,2042,-106,-17,-5,-20,7,38,0,0,0,0,0,0,0,0,0,0,0,
0,0,2049,-99,-20,-2,-18,7,55,0,0,0,0,0,0,0,0,0,0,0,
0,0,2042,-101,-16,-8,-20,3,37,0,0,0,0,0,0,0,0,0,0,0,
0,0,2046,-93,-16,-8,-18,4,52,0,0,0,0,0,0,0,0,0,0,0,
0,0,2046,-99,-17,-7,-20,2,42,0,0,0,0,0,0,0,0,0,0,0,
0,0,2038,-101,-16,-9,-16,5,38,0,0,0,0,0,0,0,0,0,0,0,
0,0,2046,-106,-11,-11,-23,2,34,0,0,0,0,0,0,0,0,0,0,0,
0,0,2043,-104,-17,-8,-22,3,32,0,0,0,0,0,0,0,0,0,0,0,
0,0,2046,-104,-19,-8,-19,10,43,0,0,0,0,0,0,0,0,0,0,0,
0,0,2053,-107,-19,-6,-14,4,49,0,0,0,0,0,0,0,0,0,0,0,
0,0,2044,-105,-10,-6,-16,5,49,0,0,0,0,0,0,0,0,0,0,0,
0,0,2043,-98,-17,-10,-21,6,40,0,0,0,0,0,0,0,0,0,0,0,
0,0,2044,-98,-19,-6,-15,4,47,0,0,0,0,0,0,0,0,0,0,0,
0,0,2051,-96,-18,-8,-18,8,57,0,0,0,0,0,0,0,0,0,0,0,
0,0,2047,-98,-25,-4,-16,6,47,0,0,0,0,0,0,0,0,0,0,0,
0,0,2046,-103,-18,-6,-17,6,45,0,0,0,0,0,0,0,0,0,0,0,
0,0,2050,-96,-14,-6,-18,7,61,0,0,0,0,0,0,0,0,0,0,0,
0,0,2047,-104,-19,-6,-20,4,39,0,0,0,0,0,0,0,0,0,0,0,
0,0,2047,-93,-21,-9,-17,5,49,0,0,0,0,0,0,0,0,0,0,0,
0,0,2054,-99,-14,-8,-17,6,60,0,0,0,0,0,0,0,0,0,0,0,
0,0,2046,-95,-15,-5,-19,5,54,0,0,0,0,0,0,0,0,0,0,0,
0,0,2046,-95,-22,-7,-19,2,42,0,0,0,0,0,0,0,0,0,0,0,
0,0,2047,-93,-22,-10,-20,5,44,0,0,0,0,0,0,0,0,0,0,0,
0,0,2051,-95,-17,-8,-19,5,55,0,0,0,0,0,0,0,0,0,0,0,
0,0,2055,-94,-16,-10,-15,7,65,0,0,0,0,0,0,0,0,0,0,0,
0,0,2051,-106,-17,-3,-19,4,48,0,0,0,0,0,0,0,0,0,0,0,
0,0,2047,-99,-13,-7,-18,6,53,0,0,0,0,0,0,0,0,0,0,0,
0,0,2043,-103,-17,-5,-19,7,43,0,0,0,0,0,0,0,0,0,0,0,
0,0,2041,-97,-22,-7,-17,6,41,0,0,0,0,0,0,0,0,0,0,0,
0,0,2048,-95,-19,-7,-17,4,52,0,0,0,0,0,0,0,0,0,0,0,
0,0,2051,-106,-9,-3,-19,7,59,0,0,0,0,0,0,0,0,0,0,0,
0,0,2043,-96,-16,-2,-19,7,54,0,0,0,0,0,0,0,0,0,0,0,
0,0,2045,-101,-14,-5,-18,8,52,0,0,0,0,0,0,0,0,0,0,0,
0,0,2047,-97,-16,-5,-18,7,55,0,0,0,0,0,0,0,0,0,0,0,
0,0,2045,-98,-13,-8,-17,8,54,0,0,0,0,0,0,0,0,0,0,0,
0,0,2044,-96,-14,-9,-18,7,51,0,0,0,0,0,0,0,0,0,0,0,
0,0,2043,-99,-19,-6,-19,7,44,0,0,0,0,0,0,0,0,0,0,0,
0,0,2045,-93,-17,-5,-19,3,51,0,0,0,0,0,0,0,0,0,0,0,
0,0,2045,-110,-17,-7,-18,8,38,0,0,0,0,0,0,0,0,0,0,0,
0,0,2044,-103,-18,-7,-17,8,44,0,0,0,0,0,0,0,0,0,0,0,
0,0,2048,-107,-14,-8,-21,6,42,0,0,0,0,0,0,0,0,0,0,0,
0,0,2048,-102,-16,-5,-16,3,50,0,0,0,0,0,0,0,0,0,0,0,
0,0,2039,-99,-14,-7,-17,6,45,0,0,0,0,0,0,0,0,0,0,0,
0,0,2050,-93,-15,-4,-19,3,60,0,0,0,0,0,0,0,0,0,0,0,
0,0,2043,-101,-16,-6,-15,6,48,0,0,0,0,0,0,0,0,0,0,0,
0,0,2050,-99,-18,-7,-20,3,47,0,0,0,0,0,0,0,0,0,0,0,
0,0,2050,-97,-15,-10,-19,7,54,0,0,0,0,0,0,0,0,0,0,0,
0,0,2048,-97,-17,-3,-16,3,56,0,0,0,0,0,0,0,0,0,0,0,
0,0,2047,-96,-19,-6,-17,1,47,0,0,0,0,0,0,0,0,0,0,0,
0,0,2047,-104,-14,-7,-18,5,46,0,0,0,0,0,0,0,0,0,0,0,
0,0,2046,-104,-15,-7,-20,6,43,0,0,0,0,0,0,0,0,0,0,0,
0,0,2050,-98,-15,-3,-17,8,63,0,0,0,0,0,0,0,0,0,0,0,
0,0,2048,-99,-19,-9,-17,-2,39,0,0,0,0,0,0,0,0,0,0,0,
0,0,2057,-104,-16,-6,-16,6,59,0,0,0,0,0,0,0,0,0,0,0,
0,0,2049,-103,-22,-2,-14,4,50,0,0,0,0,0,0,0,0,0,0,0,
0,0,2042,-100,-19,-9,-20,5,36,0,0,0,0,0,0,0,0,0,0,0,
0,0,2044,-99,-11,-11,-14,6,52,0,0,0,0,0,0,0,0,0,0,0,
0,0,2042,-100,-18,-6,-18,4,41,0,0,0,0,0,0,0,0,0,0,0,
0,0,2050,-95,-22,-6,-21,5,49,0,0,0,0,0,0,0,0,0,0,0,
0,0,2047,-93,-18,-3,-18,3,55,0,0,0,0,0,0,0,0,0,0,0,
0,0,2044,-105,-18,-7,-21,6,36,0,0,0,0,0,0,0,0,0,0,0,
0,0,2044,-95,-10,-10,-18,8,56,0,0,0,0,0,0,0,0,0,0,0,
0,0,2045,-103,-19,-6,-18,5,41,0,0,0,0,0,0,0,0,0,0,0,
0,0,2047,-96,-16,-7,-18,5,52,0,0,0,0,0,0,0,0,0,0,0,
0,0,2046,-108,-13,-3,-18,1,42,0,0,0,0,0,0,0,0,0,0,0,
0,0,2046,-102,-19,-5,-18,4,43,0,0,0,0,0,0,0,0,0,0,0,
0,0,2039,-93,-13,-6,-19,5,50,0,0,0,0,0,0,0,0,0,0,0,
0,0,2049,-100,-16,-6,-18,2,49,0,0,0,0,0,0,0,0,0,0,0,
0,0,2049,-100,-16,-6,-18,2,49,0,0,0,0,0,0,0,0,0,0,0,
0,0,2045,-101,-17,-8,-17,6,45,0,0,0,0,0,0,0,0,0,0,0,
0,0,2042,-98,-18,-7,-18,7,45,0,0,0,0,0,0,0,0,0,0,0,
0,0,2042,-102,-20,-8,-16,6,39,0,0,0,0,0,0,0,0,0,0,0,
0,0,2041,-97,-19,-6,-19,6,43,0,0,0,0,0,0,0,0,0,0,0,
0,0,2041,-97,-19,-5,-16,5,46,0,0,0,0,0,0,0,0,0,0,0,
0,0,2046,-99,-13,-8,-15,4,52,0,0,0,0,0,0,0,0,0,0,0,
0,0,2047,-95,-17,-9,-17,4,50,0,0,0,0,0,0,0,0,0,0,0,
0,0,2037,-103,-9,-4,-17,5,46,0,0,0,0,0,0,0,0,0,0,0,
0,0,2037,-103,-9,-6,-18,2,40,0,0,0,0,0,0,0,0,0,0,0,
0,0,2044,-101,-15,-4,-18,2,45,0,0,0,0,0,0,0,0,0,0,0,
0,0,2036,-105,-19,-8,-17,4,28,0,0,0,0,0,0,0,0,0,0,0,
0,0,2047,-96,-12,-5,-21,6,56,0,0,0,0,0,0,0,0,0,0,0,
0,0,2043,-103,-15,-5,-13,9,53,0,0,0,0,0,0,0,0,0,0,0,
0,0,2053,-97,-23,-8,-18,3,48,0,0,0,0,0,0,0,0,0,0,0,
0,0,2051,-101,-20,-9,-19,3,43,0,0,0,0,0,0,0,0,0,0,0,
0,0,2043,-103,-11,-5,-21,9,49,0,0,0,0,0,0,0,0,0,0,0,
0,0,2048,-104,-20,-8,-21,6,39,0,0,0,0,0,0,0,0,0,0,0,
0,0,2043,-98,-18,-7,-17,8,48,0,0,0,0,0,0,0,0,0,0,0,
0,0,2049,-99,-17,-5,-21,4,49,0,0,0,0,0,0,0,0,0,0,0,
0,0,2045,-99,-12,-6,-18,8,55,0,0,0,0,0,0,0,0,0,0,0,
0,0,2047,-106,-19,-6,-16,8,45,0,0,0,0,0,0,0,0,0,0,0,
0,0,2044,-102,-25,-6,-20,7,35,0,0,0,0,0,0,0,0,0,0,0,
0,0,2044,-105,-13,-7,-18,4,42,0,0,0,0,0,0,0,0,0,0,0,
0,0,2040,-101,-17,-4,-20,5,40,0,0,0,0,0,0,0,0,0,0,0,
0,0,2042,-101,-15,-6,-18,5,44,0,0,0,0,0,0,0,0,0,0,0,
0,0,2049,-100,-16,-6,-18,4,51,0,0,0,0,0,0,0,0,0,0,0,
0,0,2045,-101,-15,-7,-19,6,46,0,0,0,0,0,0,0,0,0,0,0,
0,0,2048,-97,-22,-8,-18,6,47,0,0,0,0,0,0,0,0,0,0,0,
0,0,2042,-105,-18,-8,-19,6,35,0,0,0,0,0,0,0,0,0,0,0,
0,0,2042,-102,-18,-10,-19,3,33,0,0,0,0,0,0,0,0,0,0,0,
0,0,2044,-100,-14,-7,-19,4,45,0,0,0,0,0,0,0,0,0,0,0,
0,0,2042,-103,-21,-9,-16,6,36,0,0,0,0,0,0,0,0,0,0,0,
0,0,2046,-104,-15,-6,-18,12,52,0,0,0,0,0,0,0,0,0,0,0,
0,0,2050,-96,-16,-6,-17,7,60,0,0,0,0,0,0,0,0,0,0,0,
0,0,2043,-103,-17,-6,-18,4,40,0,0,0,0,0,0,0,0,0,0,0,
0,0,2047,-106,-16,-10,-18,7,41,0,0,0,0,0,0,0,0,0,0,0,
0,0,2044,-103,-17,-5,-17,5,44,0,0,0,0,0,0,0,0,0,0,0,
0,0,2044,-103,-10,-8,-19,2,43,0,0,0,0,0,0,0,0,0,0,0,
0,0,2044,-100,-20,-10,-16,7,42,0,0,0,0,0,0,0,0,0,0,0,
0,0,2041,-105,-13,-6,-17,5,42,0,0,0,0,0,0,0,0,0,0,0,
0,0,2050,-96,-21,-7,-22,6,48,0,0,0,0,0,0,0,0,0,0,0,
0,0,2041,-100,-19,-8,-16,6,41,0,0,0,0,0,0,0,0,0,0,0,
0,0,2043,-95,-18,-6,-20,3,44,0,0,0,0,0,0,0,0,0,0,0,
0,0,2038,-101,-15,-6,-20,7,40,0,0,0,0,0,0,0,0,0,0,0,
0,0,2050,-99,-18,-6,-19,7,53,0,0,0,0,0,0,0,0,0,0,0,
0,0,2053,-99,-21,-1,-19,6,57,0,0,0,0,0,0,0,0,0,0,0,
0,0,2041,-88,-15,-8,-19,6,54,0,0,0,0,0,0,0,0,0,0,0,
0,0,2048,-101,-19,-5,-18,6,49,0,0,0,0,0,0,0,0,0,0,0,
0,0,2042,-93,-9,-7,-21,3,52,0,0,0,0,0,0,0,0,0,0,0,
0,0,2053,-94,-21,-9,-19,4,52,0,0,0,0,0,0,0,0,0,0,0,
0,0,2048,-96,-20,-7,-21,8,50,0,0,0,0,0,0,0,0,0,0,0,
0,0,2047,-98,-19,-5,-19,8,51,0,0,0,0,0,0,0,0,0,0,0,
0,0,2046,-95,-17,-5,-17,7,56,0,0,0,0,0,0,0,0,0,0,0,
0,0,2048,-104,-15,-3,-20,5,49,0,0,0,0,0,0,0,0,0,0,0,
0,0,2044,-100,-18,-9,-22,8,40,0,0,0,0,0,0,0,0,0,0,0,
0,0,2052,-99,-20,-4,-17,5,55,0,0,0,0,0,0,0,0,0,0,0,
0,0,2045,-101,-12,-8,-16,6,51,0,0,0,0,0,0,0,0,0,0,0,
0,0,2049,-98,-24,-6,-19,8,48,0,0,0,0,0,0,0,0,0,0,0,
0,0,2050,-99,-15,-5,-20,2,51,0,0,0,0,0,0,0,0,0,0,0,
0,0,2047,-101,-16,-5,-18,6,50,0,0,0,0,0,0,0,0,0,0,0,
0,0,2040,-94,-11,-9,-17,4,50,0,0,0,0,0,0,0,0,0,0,0,
0,0,2051,-96,-14,-6,-22,8,59,0,0,0,0,0,0,0,0,0,0,0,
0,0,2040,-105,-16,-5,-18,6,39,0,0,0,0,0,0,0,0,0,0,0,
0,0,2050,-96,-12,-6,-18,4,60,0,0,0,0,0,0,0,0,0,0,0,
0,0,2047,-96,-19,-4,-18,8,55,0,0,0,0,0,0,0,0,0,0,0,
0,0,2043,-93,-18,-8,-17,4,48,0,0,0,0,0,0,0,0,0,0,0,
0,0,2045,-99,-22,-7,-15,4,43,0,0,0,0,0,0,0,0,0,0,0,
0,0,2042,-101,-20,-7,-19,9,41,0,0,0,0,0,0,0,0,0,0,0,
0,0,2052,-97,-15,-7,-16,7,62,0,0,0,0,0,0,0,0,0,0,0,
0,0,2045,-101,-19,-5,-19,1,39,0,0,0,0,0,0,0,0,0,0,0,
0,0,2052,-99,-20,-4,-19,6,54,0,0,0,0,0,0,0,0,0,0,0,
0,0,2046,-108,-14,-6,-16,2,41,0,0,0,0,0,0,0,0,0,0,0,
0,0,2050,-98,-16,-7,-22,4,49,0,0,0,0,0,0,0,0,0,0,0,
0,0,2047,-92,-24,-7,-19,7,49,0,0,0,0,0,0,0,0,0,0,0,
0,0,2045,-106,-18,-12,-20,7,33,0,0,0,0,0,0,0,0,0,0,0,
0,0,2043,-102,-20,-8,-16,6,40,0,0,0,0,0,0,0,0,0,0,0,
0,0,2045,-100,-17,-8,-19,8,46,0,0,0,0,0,0,0,0,0,0,0,
0,0,2040,-94,-16,-7,-18,2,44,0,0,0,0,0,0,0,0,0,0,0,
0,0,2044,-94,-19,-5,-18,7,52,0,0,0,0,0,0,0,0,0,0,0,
0,0,2049,-97,-18,-6,-21,6,51,0,0,0,0,0,0,0,0,0,0,0,
0,0,2040,-101,-19,-6,-16,4,39,0,0,0,0,0,0,0,0,0,0,0,
0,0,2047,-106,-15,-7,-18,6,44,0,0,0,0,0,0,0,0,0,0,0,
0,0,2051,-103,-14,-5,-16,11,62,0,0,0,0,0,0,0,0,0,0,0,
0,0,2052,-101,-20,-6,-15,7,55,0,0,0,0,0,0,0,0,0,0,0,
0,0,2049,-103,-17,-6,-15,4,50,0,0,0,0,0,0,0,0,0,0,0,
0,0,2047,-97,-16,-8,-18,4,49,0,0,0,0,0,0,0,0,0,0,0,
0,0,2054,-105,-16,-8,-16,10,57,0,0,0,0,0,0,0,0,0,0,0,
0,0,2044,-97,-21,-5,-20,9,47,0,0,0,0,0,0,0,0,0,0,0,
0,0,2053,-93,-14,-10,-16,4,62,0,0,0,0,0,0,0,0,0,0,0,
0,0,2047,-104,-21,-7,-18,4,38,0,0,0,0,0,0,0,0,0,0,0,
0,0,2049,-99,-17,-10,-20,5,46,0,0,0,0,0,0,0,0,0,0,0,
0,0,2048,-101,-5,-5,-16,3,62,0,0,0,0,0,0,0,0,0,0,0,
0,0,2049,-101,-12,-8,-19,5,52,0,0,0,0,0,0,0,0,0,0,0,
0,0,2050,-105,-16,-6,-19,3,45,0,0,0,0,0,0,0,0,0,0,0,
0,0,2042,-99,-25,-8,-17,4,34,0,0,0,0,0,0,0,0,0,0,0,
0,0,2050,-98,-18,-7,-15,3,53,0,0,0,0,0,0,0,0,0,0,0,
0,0,2043,-102,-7,-6,-17,4,52,0,0,0,0,0,0,0,0,0,0,0,
0,0,2051,-97,-17,-7,-17,6,57,0,0,0,0,0,0,0,0,0,0,0,
0,0,2046,-109,-15,-8,-17,6,40,0,0,0,0,0,0,0,0,0,0,0,
0,0,2041,-102,-21,-4,-21,10,40,0,0,0,0,0,0,0,0,0,0,0,
0,0,2041,-101,-16,-7,-18,6,42,0,0,0,0,0,0,0,0,0,0,0,
0,0,2046,-103,-21,-7,-19,5,38,0,0,0,0,0,0,0,0,0,0,0,
0,0,2046,-94,-15,-7,-21,6,52,0,0,0,0,0,0,0,0,0,0,0,
0,0,2044,-103,-18,-6,-17,9,46,0,0,0,0,0,0,0,0,0,0,0,
0,0,2049,-96,-18,-3,-20,5,55,0,0,0,0,0,0,0,0,0,0,0,
0,0,2044,-100,-15,-8,-17,6,47,0,0,0,0,0,0,0,0,0,0,0,
0,0,2042,-99,-15,-7,-21,4,41,0,0,0,0,0,0,0,0,0,0,0,
0,0,2041,-96,-16,-8,-18,3,43,0,0,0,0,0,0,0,0,0,0,0,
0,0,2041,-96,-16,-8,-18,3,43,0,0,0,0,0,0,0,0,0,0,0,
0,0,2039,-98,-15,-7,-18,5,43,0,0,0,0,0,0,0,0,0,0,0,
0,0,2039,-98,-15,-9,-16,7,45,0,0,0,0,0,0,0,0,0,0,0,
0,0,2044,-105,-19,-7,-19,5,36,0,0,0,0,0,0,0,0,0,0,0,
0,0,2042,-104,-15,-6,-16,4,42,0,0,0,0,0,0,0,0,0,0,0,
0,0,2042,-96,-16,-9,-18,8,48,0,0,0,0,0,0,0,0,0,0,0,
0,0,2042,-96,-16,-8,-18,2,43,0,0,0,0,0,0,0,0,0,0,0,
0,0,2047,-92,-16,-9,-17,2,52,0,0,0,0,0,0,0,0,0,0,0,
0,0,2050,-101,-21,-7,-20,6,45,0,0,0,0,0,0,0,0,0,0,0,
0,0,2040,-94,-16,-8,-20,6,45,0,0,0,0,0,0,0,0,0,0,0,
0,0,2040,-94,-16,-8,-19,3,43,0,0,0,0,0,0,0,0,0,0,0,
0,0,2041,-91,-20,-9,-17,4,45,0,0,0,0,0,0,0,0,0,0,0,
0,0,2048,-93,-17,-2,-19,5,60,0,0,0,0,0,0,0,0,0,0,0,
0,0,2047,-97,-17,-7,-15,10,58,0,0,0,0,0,0,0,0,0,0,0,
0,0,2052,-109,-22,-6,-18,6,41,0,0,0,0,0,0,0,0,0,0,0,
0,0,2046,-102,-19,-6,-24,7,39,0,0,0,0,0,0,0,0,0,0,0,
0,0,2045,-95,-14,-9,-19,5,50,0,0,0,0,0,0,0,0,0,0,0,
0,0,2048,-103,-12,-8,-17,7,53,0,0,0,0,0,0,0,0,0,0,0,
0,0,2055,-100,-8,-7,-20,3,61,0,0,0,0,0,0,0,0,0,0,0,
0,0,2042,-99,-12,-5,-17,4,50,0,0,0,0,0,0,0,0,0,0,0,
0,0,2049,-99,-18,-9,-19,5,47,0,0,0,0,0,0,0,0,0,0,0,
0,0,2053,-102,-13,-7,-15,9,63,0,0,0,0,0,0,0,0,0,0,0,
0,0,2048,-101,-16,-5,-21,3,46,0,0,0,0,0,0,0,0,0,0,0,
0,0,2046,-103,-13,-5,-21,3,44,0,0,0,0,0,0,0,0,0,0,0,
0,0,2045,-98,-17,-9,-20,3,41,0,0,0,0,0,0,0,0,0,0,0,
0,0,2042,-95,-22,-7,-21,8,42,0,0,0,0,0,0,0,0,0,0,0,
0,0,2040,-100,-15,-8,-17,3,40,0,0,0,0,0,0,0,0,0,0,0,
0,0,2044,-102,-20,-9,-18,5,37,0,0,0,0,0,0,0,0,0,0,0,
0,0,2039,-98,-13,-5,-18,2,44,0,0,0,0,0,0,0,0,0,0,0,
0,0,2044,-101,-18,-7,-18,4,41,0,0,0,0,0,0,0,0,0,0,0,
0,0,2044,-112,-18,-8,-18,4,29,0,0,0,0,0,0,0,0,0,0,0,
0,0,2052,-95,-12,-6,-19,7,65,0,0,0,0,0,0,0,0,0,0,0,
0,0,2044,-102,-14,-7,-13,8,53,0,0,0,0,0,0,0,0,0,0,0,
0,0,2040,-95,-11,-8,-19,4,48,0,0,0,0,0,0,0,0,0,0,0,
0,0,2052,-99,-13,-9,-20,5,54,0,0,0,0,0,0,0,0,0,0,0,
0,0,2048,-98,-15,-8,-17,5,53,0,0,0,0,0,0,0,0,0,0,0,
0,0,2046,-95,-11,-5,-20,4,56,0,0,0,0,0,0,0,0,0,0,0,
0,0,2051,-95,-20,-8,-22,5,49,0,0,0,0,0,0,0,0,0,0,0,
0,0,2043,-107,-16,-7,-18,6,38,0,0,0,0,0,0,0,0,0,0,0,
0,0,2042,-95,-13,-12,-18,4,45,0,0,0,0,0,0,0,0,0,0,0,
0,0,2043,-104,-19,-7,-20,9,39,0,0,0,0,0,0,0,0,0,0,0,
0,0,2047,-103,-16,-10,-20,5,40,0,0,0,0,0,0,0,0,0,0,0,
0,0,2043,-104,-11,-8,-16,4,45,0,0,0,0,0,0,0,0,0,0,0,
0,0,2046,-109,-17,-6,-20,9,40,0,0,0,0,0,0,0,0,0,0,0,
0,0,2039,-96,-11,-7,-17,3,48,0,0,0,0,0,0,0,0,0,0,0,
0,0,2049,-102,-17,-4,-17,6,53,0,0,0,0,0,0,0,0,0,0,0,
0,0,2042,-100,-21,-9,-21,5,33,0,0,0,0,0,0,0,0,0,0,0,
0,0,2041,-95,-11,-6,-16,8,58,0,0,0,0,0,0,0,0,0,0,0,
0,0,2042,-103,-17,-8,-19,5,37,0,0,0,0,0,0,0,0,0,0,0,
0,0,2047,-101,-21,-7,-18,4,41,0,0,0,0,0,0,0,0,0,0,0,
0,0,2042,-99,-16,-8,-21,10,45,0,0,0,0,0,0,0,0,0,0,0,
0,0,2040,-101,-20,-8,-18,5,35,0,0,0,0,0,0,0,0,0,0,0,
0,0,2048,-98,-15,-8,-22,7,50,0,0,0,0,0,0,0,0,0,0,0,
0,0,2044,-96,-18,-4,-18,8,53,0,0,0,0,0,0,0,0,0,0,0,
0,0,2045,-103,-19,-7,-19,6,40,0,0,0,0,0,0,0,0,0,0,0,
0,0,2043,-97,-20,-3,-20,7,47,0,0,0,0,0,0,0,0,0,0,0,
0,0,2045,-93,-25,-8,-18,5,43,0,0,0,0,0,0,0,0,0,0,0,
0,0,2046,-96,-17,-7,-17,6,52,0,0,0,0,0,0,0,0,0,0,0,
0,0,2050,-97,-15,-6,-16,6,60,0,0,0,0,0,0,0,0,0,0,0,
0,0,2040,-98,-21,-8,-20,6,36,0,0,0,0,0,0,0,0,0,0,0,
0,0,2043,-98,-17,-3,-18,8,52,0,0,0,0,0,0,0,0,0,0,0,
0,0,2049,-102,-16,-5,-18,3,49,0,0,0,0,0,0,0,0,0,0,0,
0,0,2048,-96,-20,-9,-15,4,50,0,0,0,0,0,0,0,0,0,0,0,
0,0,2045,-100,-24,-7,-20,7,38,0,0,0,0,0,0,0,0,0,0,0,
0,0,2044,-95,-19,-6,-20,8,49,0,0,0,0,0,0,0,0,0,0,0,
0,0,2047,-97,-17,-5,-20,6,51,0,0,0,0,0,0,0,0,0,0,0,
0,0,2041,-97,-19,-7,-17,4,42,0,0,0,0,0,0,0,0,0,0,0,
0,0,2045,-110,-16,-7,-19,6,36,0,0,0,0,0,0,0,0,0,0,0,
0,0,2041,-102,-23,-4,-18,7,38,0,0,0,0,0,0,0,0,0,0,0,
0,0,2048,-97,-15,-8,-19,3,50,0,0,0,0,0,0,0,0,0,0,0,
0,0,2046,-108,-13,-6,-13,6,49,0,0,0,0,0,0,0,0,0,0,0,
0,0,2037,-100,-9,-7,-17,7,48,0,0,0,0,0,0,0,0,0,0,0,
0,0,2048,-94,-11,-6,-18,4,61,0,0,0,0,0,0,0,0,0,0,0,
0,0,2043,-98,-17,-6,-19,1,41,0,0,0,0,0,0,0,0,0,0,0,
0,0,2046,-98,-14,-6,-19,5,51,0,0,0,0,0,0,0,0,0,0,0,
0,0,2042,-97,-17,-7,-17,4,45,0,0,0,0,0,0,0,0,0,0,0,
0,0,2047,-94,-15,-5,-17,8,61,0,0,0,0,0,0,0,0,0,0,0,
0,0,2044,-96,-21,-6,-19,3,42,0,0,0,0,0,0,0,0,0,0,0,
0,0,2046,-98,-13,-8,-16,6,54,0,0,0,0,0,0,0,0,0,0,0,
0,0,2046,-93,-15,-5,-17,7,60,0,0,0,0,0,0,0,0,0,0,0,
0,0,2046,-103,-19,-8,-18,8,43,0,0,0,0,0,0,0,0,0,0,0,
0,0,2046,-104,-18,-6,-15,7,47,0,0,0,0,0,0,0,0,0,0,0,
0,0,2044,-100,-15,-7,-20,3,42,0,0,0,0,0,0,0,0,0,0,0,
0,0,2047,-99,-15,-8,-19,3,46,0,0,0,0,0,0,0,0,0,0,0,
0,0,2044,-99,-12,-4,-16,5,55,0,0,0,0,0,0,0,0,0,0,0,
0,0,2045,-104,-23,-6,-22,3,30,0,0,0,0,0,0,0,0,0,0,0,
0,0,2050,-103,-12,-6,-18,7,56,0,0,0,0,0,0,0,0,0,0,0,
0,0,2048,-98,-4,-6,-19,5,64,0,0,0,0,0,0,0,0,0,0,0,
0,0,2038,-102,-17,-5,-16,8,43,0,0,0,0,0,0,0,0,0,0,0,
0,0,2047,-96,-18,-5,-20,7,52,0,0,0,0,0,0,0,0,0,0,0,
0,0,2044,-98,-15,-7,-19,9,51,0,0,0,0,0,0,0,0,0,0,0,
0,0,2043,-101,-15,-7,-19,8,46,0,0,0,0,0,0,0,0,0,0,0,
0,0,2044,-101,-17,-6,-18,3,42,0,0,0,0,0,0,0,0,0,0,0,
0,0,2046,-102,-16,-8,-15,6,48,0,0,0,0,0,0,0,0,0,0,0,
0,0,2044,-93,-20,-5,-20,6,49,0,0,0,0,0,0,0,0,0,0,0,
0,0,2044,-99,-19,-4,-21,6,44,0,0,0,0,0,0,0,0,0,0,0,
0,0,2047,-95,-15,-7,-18,7,56,0,0,0,0,0,0,0,0,0,0,0,
0,0,2047,-99,-14,-5,-20,5,51,0,0,0,0,0,0,0,0,0,0,0,
0,0,2044,-103,-18,-9,-18,8,41,0,0,0,0,0,0,0,0,0,0,0,
0,0,2038,-105,-15,-11,-19,7,32,0,0,0,0,0,0,0,0,0,0,0,
0,0,2041,-105,-22,-7,-17,4,31,0,0,0,0,0,0,0,0,0,0,0,
0,0,2047,-103,-22,-8,-18,3,36,0,0,0,0,0,0,0,0,0,0,0,
0,0,2052,-90,-16,-8,-20,8,64,0,0,0,0,0,0,0,0,0,0,0,
0,0,2044,-95,-13,-7,-19,2,49,0,0,0,0,0,0,0,0,0,0,0,
0,0,2045,-98,-12,-7,-18,5,52,0,0,0,0,0,0,0,0,0,0,0,
0,0,2047,-103,-16,-4,-14,6,53,0,0,0,0,0,0,0,0,0,0,0,
0,0,2045,-103,-18,-5,-18,8,46,0,0,0,0,0,0,0,0,0,0,0,
0,0,2045,-102,-18,-6,-18,8,46,0,0,0,0,0,0,0,0,0,0,0,
0,0,2046,-97,-14,-8,-14,5,55,0,0,0,0,0,0,0,0,0,0,0,
0,0,2046,-97,-15,-9,-18,8,52,0,0,0,0,0,0,0,0,0,0,0,
0,0,2046,-97,-15,-9,-18,8,52,0,0,0,0,0,0,0,0,0,0,0,
0,0,2050,-94,-16,-7,-19,4,56,0,0,0,0,0,0,0,0,0,0,0,
0,0,2044,-106,-8,-3,-21,6,49,0,0,0,0,0,0,0,0,0,0,0,
0,0,2043,-106,-16,-5,-19,6,40,0,0,0,0,0,0,0,0,0,0,0,
0,0,2041,-101,-15,-9,-19,5,39,0,0,0,0,0,0,0,0,0,0,0,
0,0,2054,-100,-25,-8,-17,4,46,0,0,0,0,0,0,0,0,0,0,0,
0,0,2054,-100,-25,-8,-19,3,43,0,0,0,0,0,0,0,0,0,0,0,
0,0,2050,-93,-18,-6,-17,8,62,0,0,0,0,0,0,0,0,0,0,0,
0,0,2043,-99,-23,-4,-20,8,42,0,0,0,0,0,0,0,0,0,0,0,
0,0,2046,-101,-18,-7,-19,8,46,0,0,0,0,0,0,0,0,0,0,0,
0,0,2046,-101,-18,-6,-16,4,46,0,0,0,0,0,0,0,0,0,0,0,
0,0,2048,-103,-14,-6,-18,7,52,0,0,0,0,0,0,0,0,0,0,0,
0,0,2049,-100,-16,-7,-21,8,51,0,0,0,0,0,0,0,0,0,0,0,
0,0,2046,-100,-16,-10,-18,5,44,0,0,0,0,0,0,0,0,0,0,0,
0,0,2048,-96,-20,-3,-19,8,56,0,0,0,0,0,0,0,0,0,0,0,
0,0,2045,-100,-19,-9,-18,4,40,0,0,0,0,0,0,0,0,0,0,0,
0,0,2047,-97,-14,-7,-17,6,55,0,0,0,0,0,0,0,0,0,0,0,
0,0,2047,-99,-16,-9,-18,2,44,0,0,0,0,0,0,0,0,0,0,0,
0,0,2039,-100,-23,-9,-20,4,28,0,0,0,0,0,0,0,0,0,0,0,
0,0,2048,-99,-14,-7,-17,7,56,0,0,0,0,0,0,0,0,0,0,0,
0,0,2040,-102,-20,-8,-16,5,36,0,0,0,0,0,0,0,0,0,0,0,
0,0,2043,-97,-22,-6,-19,8,44,0,0,0,0,0,0,0,0,0,0,0,
0,0,2035,-96,-17,-6,-18,6,41,0,0,0,0,0,0,0,0,0,0,0,
0,0,2046,-104,-20,-8,-16,3,38,0,0,0,0,0,0,0,0,0,0,0,
0,0,2047,-98,-18,-5,-17,6,52,0,0,0,0,0,0,0,0,0,0,0,
0,0,2037,-98,-17,-4,-18,8,45,0,0,0,0,0,0,0,0,0,0,0,
0,0,2045,-96,-16,-11,-19,5,45,0,0,0,0,0,0,0,0,0,0,0,
0,0,2043,-97,-14,-9,-16,5,49,0,0,0,0,0,0,0,0,0,0,0,
0,0,2047,-105,-13,-9,-20,5,42,0,0,0,0,0,0,0,0,0,0,0,
0,0,2045,-99,-20,-6,-18,5,44,0,0,0,0,0,0,0,0,0,0,0,
0,0,2044,-95,-17,-9,-20,5,45,0,0,0,0,0,0,0,0,0,0,0,
0,0,2047,-98,-16,-8,-17,6,51,0,0,0,0,0,0,0,0,0,0,0,
0,0,2045,-104,-24,-5,-17,5,37,0,0,0,0,0,0,0,0,0,0,0,
0,0,2050,-101,-15,-2,-21,3,52,0,0,0,0,0,0,0,0,0,0,0,
0,0,2042,-97,-12,-5,-17,6,54,0,0,0,0,0,0,0,0,0,0,0,
0,0,2049,-100,-22,-6,-18,7,48,0,0,0,0,0,0,0,0,0,0,0,
0,0,2049,-96,-19,-4,-17,5,56,0,0,0,0,0,0,0,0,0,0,0,
0,0,2049,-99,-20,-6,-19,3,46,0,0,0,0,0,0,0,0,0,0,0,
0,0,2046,-109,-16,-4,-17,7,44,0,0,0,0,0,0,0,0,0,0,0,
0,0,2044,-94,-14,-8,-17,7,55,0,0,0,0,0,0,0,0,0,0,0,
0,0,2042,-94,-14,-6,-18,9,56,0,0,0,0,0,0,0,0,0,0,0,
0,0,2045,-103,-19,-9,-22,8,37,0,0,0,0,0,0,0,0,0,0,0,
0,0,2050,-100,-14,-7,-16,1,52,0,0,0,0,0,0,0,0,0,0,0,
0,0,2041,-93,-8,-7,-20,8,58,0,0,0,0,0,0,0,0,0,0,0,
0,0,2049,-105,-23,-8,-20,1,32,0,0,0,0,0,0,0,0,0,0,0,
0,0,2048,-106,-15,-7,-18,7,47,0,0,0,0,0,0,0,0,0,0,0,
0,0,2046,-98,-18,-2,-18,8,55,0,0,0,0,0,0,0,0,0,0,0,
0,0,2049,-102,-19,-6,-20,5,45,0,0,0,0,0,0,0,0,0,0,0,
0,0,2039,-97,-18,-5,-19,9,46,0,0,0,0,0,0,0,0,0,0,0,
0,0,2039,-106,-20,-6,-21,7,30,0,0,0,0,0,0,0,0,0,0,0,
0,0,2046,-105,-15,-7,-17,8,47,0,0,0,0,0,0,0,0,0,0,0,
0,0,2046,-99,-12,-6,-18,6,54,0,0,0,0,0,0,0,0,0,0,0,
0,0,2047,-99,-12,-11,-17,5,50,0,0,0,0,0,0,0,0,0,0,0,
0,0,2044,-99,-18,-7,-19,6,44,0,0,0,0,0,0,0,0,0,0,0,
0,0,2041,-94,-17,-11,-18,7,45,0,0,0,0,0,0,0,0,0,0,0,
0,0,2050,-99,-14,-2,-19,8,62,0,0,0,0,0,0,0,0,0,0,0,
0,0,2042,-107,-15,-8,-18,6,37,0,0,0,0,0,0,0,0,0,0,0,
0,0,2038,-97,-17,-7,-21,4,37,0,0,0,0,0,0,0,0,0,0,0,
0,0,2043,-96,-20,-9,-19,6,42,0,0,0,0,0,0,0,0,0,0,0,
0,0,2048,-106,-17,-7,-19,5,42,0,0,0,0,0,0,0,0,0,0,0,
0,0,2050,-107,-14,-10,-15,5,47,0,0,0,0,0,0,0,0,0,0,0,
0,0,2046,-96,-18,-7,-20,7,49,0,0,0,0,0,0,0,0,0,0,0,
0,0,2047,-99,-16,-7,-17,8,53,0,0,0,0,0,0,0,0,0,0,0,
0,0,2039,-97,-7,-8,-18,9,55,0,0,0,0,0,0,0,0,0,0,0,
0,0,2037,-98,-11,-9,-17,1,40,0,0,0,0,0,0,0,0,0,0,0,
0,0,2051,-98,-20,-5,-18,5,53,0,0,0,0,0,0,0,0,0,0,0,
0,0,2042,-102,-20,-6,-17,7,41,0,0,0,0,0,0,0,0,0,0,0,
0,0,2046,-99,-22,-8,-17,7,44,0,0,0,0,0,0,0,0,0,0,0,
0,0,2043,-93,-20,-7,-16,5,49,0,0,0,0,0,0,0,0,0,0,0,
0,0,2047,-103,-10,-8,-18,5,50,0,0,0,0,0,0,0,0,0,0,0,
0,0,2040,-96,-15,-9,-20,8,45,0,0,0,0,0,0,0,0,0,0,0,
0,0,2048,-99,-18,-6,-16,7,54,0,0,0,0,0,0,0,0,0,0,0,
0,0,2043,-100,-24,-6,-19,8,39,0,0,0,0,0,0,0,0,0,0,0,
0,0,2044,-100,-25,-2,-21,11,44,0,0,0,0,0,0,0,0,0,0,0,
0,0,2047,-105,-25,-9,-18,4,31,0,0,0,0,0,0,0,0,0,0,0,
0,0,2041,-101,-16,-3,-19,9,48,0,0,0,0,0,0,0,0,0,0,0,
0,0,2043,-100,-16,-10,-21,6,39,0,0,0,0,0,0,0,0,0,0,0,
0,0,2047,-98,-20,-7,-17,4,46,0,0,0,0,0,0,0,0,0,0,0,
0,0,2047,-104,-20,-6,-21,10,43,0,0,0,0,0,0,0,0,0,0,0,
0,0,2045,-94,-16,-11,-20,6,47,0,0,0,0,0,0,0,0,0,0,0,
0,0,2046,-102,-17,-5,-19,3,43,0,0,0,0,0,0,0,0,0,0,0,
0,0,2048,-95,-12,-7,-19,6,59,0,0,0,0,0,0,0,0,0,0,0,
0,0,2041,-99,-15,-6,-18,3,43,0,0,0,0,0,0,0,0,0,0,0,
0,0,2052,-95,-19,-11,-17,6,54,0,0,0,0,0,0,0,0,0,0,0,
0,0,2040,-98,-24,-7,-18,5,35,0,0,0,0,0,0,0,0,0,0,0,
0,0,2041,-97,-20,-8,-19,5,39,0,0,0,0,0,0,0,0,0,0,0,
0,0,2041,-104,-25,-8,-18,8,31,0,0,0,0,0,0,0,0,0,0,0,
0,0,2050,-98,-15,-6,-21,7,55,0,0,0,0,0,0,0,0,0,0,0,
0,0,2041,-99,-16,-7,-17,3,42,0,0,0,0,0,0,0,0,0,0,0,
0,0,2050,-99,-19,-5,-15,4,54,0,0,0,0,0,0,0,0,0,0,0,
0,0,2048,-95,-22,-5,-16,6,54,0,0,0,0,0,0,0,0,0,0,0,
0,0,2047,-103,-16,-7,-17,5,46,0,0,0,0,0,0,0,0,0,0,0,
0,0,2045,-94,-10,-9,-21,4,52,0,0,0,0,0,0,0,0,0,0,0,
0,0,2046,-95,-16,-5,-16,6,57,0,0,0,0,0,0,0,0,0,0,0,
0,0,2047,-101,-24,-10,-20,9,38,0,0,0,0,0,0,0,0,0,0,0,
0,0,2047,-98,-13,-5,-16,11,63,0,0,0,0,0,0,0,0,0,0,0,
0,0,2043,-100,-23,-9,-19,4,33,0,0,0,0,0,0,0,0,0,0,0,
0,0,2044,-106,-9,-7,-20,5,44,0,0,0,0,0,0,0,0,0,0,0,
0,0,2037,-105,-13,-7,-19,4,34,0,0,0,0,0,0,0,0,0,0,0,
0,0,2049,-111,-16,-9,-18,5,38,0,0,0,0,0,0,0,0,0,0,0,
0,0,2044,-98,-10,-7,-17,7,56,0,0,0,0,0,0,0,0,0,0,0,
0,0,2044,-103,-15,-8,-20,4,39,0,0,0,0,0,0,0,0,0,0,0,
0,0,2047,-103,-19,-5,-19,7,45,0,0,0,0,0,0,0,0,0,0,0,
0,0,2049,-97,-17,-5,-18,4,54,0,0,0,0,0,0,0,0,0,0,0,
0,0,2042,-97,-14,-8,-20,3,43,0,0,0,0,0,0,0,0,0,0,0,
0,0,2044,-106,-13,-10,-16,6,42,0,0,0,0,0,0,0,0,0,0,0,
0,0,2045,-98,-15,-4,-18,3,50,0,0,0,0,0,0,0,0,0,0,0,
0,0,2046,-97,-13,-5,-17,6,57,0,0,0,0,0,0,0,0,0,0,0,
0,0,2051,-104,-16,-4,-20,7,52,0,0,0,0,0,0,0,0,0,0,0,
0,0,2051,-104,-16,-4,-20,7,52,0,0,0,0,0,0,0,0,0,0,0,
0,0,2047,-100,-19,-6,-16,6,49,0,0,0,0,0,0,0,0,0,0,0,
0,0,2047,-95,-19,-6,-15,4,53,0,0,0,0,0,0,0,0,0,0,0,
0,0,2046,-104,-21,-5,-19,4,38,0,0,0,0,0,0,0,0,0,0,0,
0,0,2046,-104,-21,-5,-19,4,38,0,0,0,0,0,0,0,0,0,0,0,
0,0,2043,-98,-14,-6,-18,7,51,0,0,0,0,0,0,0,0,0,0,0,
0,0,2044,-97,-16,-6,-19,4,47,0,0,0,0,0,0,0,0,0,0,0,
0,0,2042,-107,-12,-8,-18,7,41,0,0,0,0,0,0,0,0,0,0,0,
0,0,2047,-100,-18,-8,-21,6,43,0,0,0,0,0,0,0,0,0,0,0,
0,0,2045,-100,-15,-8,-18,3,44,0,0,0,0,0,0,0,0,0,0,0,
0,0,2045,-100,-15,-7,-21,7,46,0,0,0,0,0,0,0,0,0,0,0,
0,0,2046,-101,-7,-7,-19,3,52,0,0,0,0,0,0,0,0,0,0,0,
0,0,2044,-103,-19,-4,-20,7,42,0,0,0,0,0,0,0,0,0,0,0,
0,0,2043,-99,-15,-3,-19,6,50,0,0,0,0,0,0,0,0,0,0,0,
0,0,2046,-102,-14,-8,-20,8,47,0,0,0,0,0,0,0,0,0,0,0,
0,0,2043,-102,-14,-8,-18,5,43,0,0,0,0,0,0,0,0,0,0,0,
0,0,2048,-104,-16,-6,-17,7,50,0,0,0,0,0,0,0,0,0,0,0,
0,0,2048,-103,-16,-8,-19,6,46,0,0,0,0,0,0,0,0,0,0,0,
0,0,2052,-98,-10,-5,-19,5,63,0,0,0,0,0,0,0,0,0,0,0,
0,0,2052,-103,-22,-6,-17,3,45,0,0,0,0,0,0,0,0,0,0,0,
0,0,2049,-95,-11,-3,-18,4,64,0,0,0,0,0,0,0,0,0,0,0,
0,0,2046,-97,-18,-7,-16,6,51,0,0,0,0,0,0,0,0,0,0,0,
0,0,2052,-99,-18,-6,-18,3,52,0,0,0,0,0,0,0,0,0,0,0,
0,0,2041,-103,-16,-6,-18,7,42,0,0,0,0,0,0,0,0,0,0,0,
0,0,2043,-100,-14,-8,-17,6,47,0,0,0,0,0,0,0,0,0,0,0,
0,0,2053,-99,-23,-5,-17,5,52,0,0,0,0,0,0,0,0,0,0,0,
0,0,2045,-100,-17,-5,-18,6,48,0,0,0,0,0,0,0,0,0,0,0,
0,0,2043,-103,-15,-6,-18,5,43,0,0,0,0,0,0,0,0,0,0,0,
0,0,2053,-90,-21,-2,-18,8,68,0,0,0,0,0,0,0,0,0,0,0,
0,0,2043,-92,-16,-8,-21,4,47,0,0,0,0,0,0,0,0,0,0,0,
0,0,2043,-99,-19,-8,-16,1,39,0,0,0,0,0,0,0,0,0,0,0,
0,0,2045,-97,-18,-7,-19,7,48,0,0,0,0,0,0,0,0,0,0,0,
0,0,2049,-97,-16,-6,-19,9,58,0,0,0,0,0,0,0,0,0,0,0,
0,0,2044,-100,-15,-6,-19,3,44,0,0,0,0,0,0,0,0,0,0,0,
0,0,2049,-102,-18,-5,-20,5,47,0,0,0,0,0,0,0,0,0,0,0,
0,0,2044,-100,-17,-7,-20,6,43,0,0,0,0,0,0,0,0,0,0,0,
0,0,2041,-99,-22,-8,-19,6,36,0,0,0,0,0,0,0,0,0,0,0,
0,0,2042,-99,-20,-8,-17,5,40,0,0,0,0,0,0,0,0,0,0,0,
0,0,2052,-96,-17,-5,-19,1,54,0,0,0,0,0,0,0,0,0,0,0,
0,0,2044,-102,-22,-7,-17,6,39,0,0,0,0,0,0,0,0,0,0,0,
0,0,2037,-105,-19,-9,-18,4,27,0,0,0,0,0,0,0,0,0,0,0,
0,0,2043,-103,-17,-6,-20,4,38,0,0,0,0,0,0,0,0,0,0,0,
0,0,2048,-94,-17,-2,-17,7,63,0,0,0,0,0,0,0,0,0,0,0,
0,0,2048,-108,-16,-7,-18,7,44,0,0,0,0,0,0,0,0,0,0,0,
0,0,2046,-96,-8,-9,-20,7,57,0,0,0,0,0,0,0,0,0,0,0,
0,0,2045,-95,-12,-6,-17,8,60,0,0,0,0,0,0,0,0,0,0,0,
0,0,2044,-98,-13,-9,-19,7,49,0,0,0,0,0,0,0,0,0,0,0,
0,0,2046,-103,-17,-8,-20,4,39,0,0,0,0,0,0,0,0,0,0,0,
0,0,2048,-93,-17,-6,-19,7,58,0,0,0,0,0,0,0,0,0,0,0,
0,0,2044,-106,-10,-4,-19,6,48,0,0,0,0,0,0,0,0,0,0,0,
0,0,2040,-101,-16,-8,-18,6,40,0,0,0,0,0,0,0,0,0,0,0,
0,0,2041,-96,-24,-5,-15,5,43,0,0,0,0,0,0,0,0,0,0,0,
0,0,2051,-92,-13,-8,-18,5,63,0,0,0,0,0,0,0,0,0,0,0,
0,0,2051,-103,-13,-7,-19,8,55,0,0,0,0,0,0,0,0,0,0,0,
0,0,2050,-107,-19,-8,-18,5,41,0,0,0,0,0,0,0,0,0,0,0,
0,0,2046,-101,-17,-5,-16,6,50,0,0,0,0,0,0,0,0,0,0,0,
0,0,2048,-100,-9,-7,-19,7,58,0,0,0,0,0,0,0,0,0,0,0,
0,0,2045,-100,-12,-6,-18,2,48,0,0,0,0,0,0,0,0,0,0,0,
0,0,2035,-102,-19,-8,-20,7,30,0,0,0,0,0,0,0,0,0,0,0,
0,0,2047,-104,-14,-7,-19,5,45,0,0,0,0,0,0,0,0,0,0,0,
0,0,2044,-100,-20,-8,-14,6,45,0,0,0,0,0,0,0,0,0,0,0,
0,0,2046,-104,-18,-8,-22,7,38,0,0,0,0,0,0,0,0,0,0,0,
0,0,2047,-96,-11,-7,-18,7,59,0,0,0,0,0,0,0,0,0,0,0,
0,0,2044,-99,-14,-6,-16,4,50,0,0,0,0,0,0,0,0,0,0,0,
0,0,2049,-99,-17,-6,-18,5,52,0,0,0,0,0,0,0,0,0,0,0,
0,0,2051,-93,-13,-8,-19,5,61,0,0,0,0,0,0,0,0,0,0,0,
0,0,2046,-102,-15,-2,-17,7,54,0,0,0,0,0,0,0,0,0,0,0,
0,0,2047,-103,-23,-7,-19,4,36,0,0,0,0,0,0,0,0,0,0,0,
0,0,2049,-92,-13,-2,-21,9,68,0,0,0,0,0,0,0,0,0,0,0,
0,0,2049,-106,-23,-5,-22,8,39,0,0,0,0,0,0,0,0,0,0,0,
0,0,2043,-94,-13,-8,-20,6,51,0,0,0,0,0,0,0,0,0,0,0,
0,0,2043,-95,-12,-5,-20,4,52,0,0,0,0,0,0,0,0,0,0,0,
0,0,2047,-98,-9,-9,-20,2,50,0,0,0,0,0,0,0,0,0,0,0,
0,0,2046,-95,-11,-6,-19,3,55,0,0,0,0,0,0,0,0,0,0,0,
0,0,2043,-105,-18,-5,-20,3,35,0,0,0,0,0,0,0,0,0,0,0,
0,0,2045,-99,-14,-4,-16,2,51,0,0,0,0,0,0,0,0,0,0,0,
0,0,2051,-97,-11,-5,-19,3,60,0,0,0,0,0,0,0,0,0,0,0,
0,0,2041,-95,-10,-5,-18,8,58,0,0,0,0,0,0,0,0,0,0,0,
0,0,2042,-97,-15,-2,-20,6,51,0,0,0,0,0,0,0,0,0,0,0,
0,0,2037,-104,-18,-6,-20,6,32,0,0,0,0,0,0,0,0,0,0,0,
0,0,2047,-99,-19,-6,-17,8,51,0,0,0,0,0,0,0,0,0,0,0,
0,0,2045,-102,-19,-6,-21,9,43,0,0,0,0,0,0,0,0,0,0,0,
0,0,2044,-98,-7,-10,-17,5,54,0,0,0,0,0,0,0,0,0,0,0,
0,0,2047,-96,-12,-9,-20,2,49,0,0,0,0,0,0,0,0,0,0,0,
0,0,2048,-100,-10,-7,-17,3,55,0,0,0,0,0,0,0,0,0,0,0,
0,0,2042,-98,-14,-10,-17,6,46,0,0,0,0,0,0,0,0,0,0,0,
0,0,2045,-101,-17,-8,-17,4,43,0,0,0,0,0,0,0,0,0,0,0,
0,0,2046,-95,-21,-6,-21,8,48,0,0,0,0,0,0,0,0,0,0,0,
0,0,2048,-101,-21,-7,-20,6,43,0,0,0,0,0,0,0,0,0,0,0,
0,0,2041,-105,-14,-4,-19,5,41,0,0,0,0,0,0,0,0,0,0,0,
0,0,2047,-98,-21,-4,-16,9,54,0,0,0,0,0,0,0,0,0,0,0,
0,0,2047,-96,-14,-4,-21,5,54,0,0,0,0,0,0,0,0,0,0,0,
0,0,2047,-105,-27,-5,-18,4,33,0,0,0,0,0,0,0,0,0,0,0,
0,0,2050,-104,-17,-7,-18,7,49,0,0,0,0,0,0,0,0,0,0,0,
0,0,2050,-94,-14,-7,-19,7,61,0,0,0,0,0,0,0,0,0,0,0,
0,0,2047,-98,-19,-5,-17,6,51,0,0,0,0,0,0,0,0,0,0,0,
0,0,2049,-97,-12,-7,-19,5,57,0,0,0,0,0,0,0,0,0,0,0,
0,0,2040,-104,-15,-11,-21,4,30,0,0,0,0,0,0,0,0,0,0,0,
0,0,2048,-98,-10,-6,-18,8,62,0,0,0,0,0,0,0,0,0,0,0,
