1,2,3,4,5,6,7,8,9,10,11,12,13,14,15,16,17,18,19,20
UserData_20,Frame ID£º0x01,FC_ACC_X,FC_ACC_Y,FC_ACC_Z,FC_GYR_X,FC_GYR_Y,FC_GYR_Z,FC_STA_Shock,Frame ID£º0x02,FC_MAG_X,FC_MAG_Y,FC_MAG_Z,FC_ALT_BAR,FC_SenserTMP,FC_STA_BAR,FC_STA_MAG,Frame ID£º0x03,FC_ATT_ROL,FC_ATT_PIT
0,0,-1988,-89,-77,596,-34,4,121,0,0,0,0,0,0,0,0,0,0,0
0,0,-1991,-86,-72,598,-35,6,129,0,0,0,0,0,0,0,0,0,0,0
0,0,-1989,-87,-81,599,-34,5,122,0,0,0,0,0,0,0,0,0,0,0
0,0,-1982,-85,-76,597,-33,8,138,0,0,0,0,0,0,0,0,0,0,0
0,0,-1985,-78,-80,596,-34,8,136,0,0,0,0,0,0,0,0,0,0,0
0,0,-1983,-91,-86,597,-34,7,119,0,0,0,0,0,0,0,0,0,0,0
0,0,-1985,-79,-75,597,-33,6,140,0,0,0,0,0,0,0,0,0,0,0
0,0,-1986,-85,-77,597,-34,7,131,0,0,0,0,0,0,0,0,0,0,0
0,0,-1988,-85,-72,598,-34,6,134,0,0,0,0,0,0,0,0,0,0,0
0,0,-1984,-78,-70,598,-32,6,149,0,0,0,0,0,0,0,0,0,0,0
0,0,-1985,-84,-65,599,-34,6,146,0,0,0,0,0,0,0,0,0,0,0
0,0,-1985,-83,-77,599,-34,8,137,0,0,0,0,0,0,0,0,0,0,0
0,0,-1983,-81,-77,596,-34,6,136,0,0,0,0,0,0,0,0,0,0,0
0,0,-1984,-85,-75,597,-34,7,135,0,0,0,0,0,0,0,0,0,0,0
0,0,-1991,-94,-75,597,-34,6,118,0,0,0,0,0,0,0,0,0,0,0
0,0,-1991,-89,-72,597,-33,7,128,0,0,0,0,0,0,0,0,0,0,0
0,0,-1986,-88,-74,598,-34,6,131,0,0,0,0,0,0,0,0,0,0,0
0,0,-1989,-85,-71,597,-33,6,134,0,0,0,0,0,0,0,0,0,0,0
0,0,-1984,-91,-64,599,-34,8,143,0,0,0,0,0,0,0,0,0,0,0
0,0,-1989,-94,-73,597,-34,6,122,0,0,0,0,0,0,0,0,0,0,0
0,0,-1991,-90,-77,598,-34,5,120,0,0,0,0,0,0,0,0,0,0,0
0,0,-1998,-77,-73,598,-35,6,130,0,0,0,0,0,0,0,0,0,0,0
0,0,-1984,-82,-75,597,-33,6,138,0,0,0,0,0,0,0,0,0,0,0
0,0,-1992,-83,-78,597,-32,5,126,0,0,0,0,0,0,0,0,0,0,0
0,0,-1980,-83,-72,597,-32,9,148,0,0,0,0,0,0,0,0,0,0,0
0,0,-1984,-84,-79,597,-34,7,132,0,0,0,0,0,0,0,0,0,0,0
0,0,-1987,-92,-72,599,-34,6,129,0,0,0,0,0,0,0,0,0,0,0
0,0,-1984,-89,-76,600,-34,6,132,0,0,0,0,0,0,0,0,0,0,0
0,0,-1984,-87,-77,598,-34,7,132,0,0,0,0,0,0,0,0,0,0,0
0,0,-1987,-86,-82,598,-34,6,124,0,0,0,0,0,0,0,0,0,0,0
0,0,-1985,-84,-82,596,-35,9,128,0,0,0,0,0,0,0,0,0,0,0
0,0,-1991,-80,-82,597,-34,7,126,0,0,0,0,0,0,0,0,0,0,0
0,0,-1987,-78,-72,598,-35,6,141,0,0,0,0,0,0,0,0,0,0,0
0,0,-1993,-85,-75,597,-34,7,126,0,0,0,0,0,0,0,0,0,0,0
0,0,-1989,-88,-77,599,-35,7,126,0,0,0,0,0,0,0,0,0,0,0
0,0,-1986,-85,-84,597,-36,8,123,0,0,0,0,0,0,0,0,0,0,0
0,0,-1987,-90,-68,596,-32,6,134,0,0,0,0,0,0,0,0,0,0,0
0,0,-1983,-93,-68,598,-33,4,134,0,0,0,0,0,0,0,0,0,0,0
0,0,-1993,-78,-76,598,-34,6,132,0,0,0,0,0,0,0,0,0,0,0
0,0,-1993,-84,-76,596,-34,10,128,0,0,0,0,0,0,0,0,0,0,0
0,0,-1986,-84,-80,595,-33,8,129,0,0,0,0,0,0,0,0,0,0,0
0,0,-1990,-84,-82,598,-36,7,122,0,0,0,0,0,0,0,0,0,0,0
0,0,-1988,-93,-80,597,-34,5,116,0,0,0,0,0,0,0,0,0,0,0
0,0,-1988,-90,-81,596,-35,7,118,0,0,0,0,0,0,0,0,0,0,0
0,0,-1991,-89,-83,598,-32,8,120,0,0,0,0,0,0,0,0,0,0,0
0,0,-1987,-89,-74,597,-34,7,129,0,0,0,0,0,0,0,0,0,0,0
0,0,-1986,-88,-73,597,-34,7,132,0,0,0,0,0,0,0,0,0,0,0
0,0,-1991,-84,-77,596,-36,8,125,0,0,0,0,0,0,0,0,0,0,0
0,0,-1984,-91,-70,598,-35,7,134,0,0,0,0,0,0,0,0,0,0,0
0,0,-1985,-89,-67,599,-34,8,141,0,0,0,0,0,0,0,0,0,0,0
0,0,-1984,-89,-81,598,-34,7,126,0,0,0,0,0,0,0,0,0,0,0
0,0,-1983,-88,-70,597,-35,6,136,0,0,0,0,0,0,0,0,0,0,0
0,0,-1988,-96,-72,597,-34,7,123,0,0,0,0,0,0,0,0,0,0,0
0,0,-1987,-82,-69,597,-34,8,142,0,0,0,0,0,0,0,0,0,0,0
0,0,-1988,-86,-82,599,-34,6,124,0,0,0,0,0,0,0,0,0,0,0
0,0,-1985,-88,-83,597,-35,6,121,0,0,0,0,0,0,0,0,0,0,0
0,0,-1989,-86,-81,597,-35,8,123,0,0,0,0,0,0,0,0,0,0,0
0,0,-1990,-87,-75,597,-35,6,125,0,0,0,0,0,0,0,0,0,0,0
0,0,-1990,-85,-72,597,-34,4,129,0,0,0,0,0,0,0,0,0,0,0
0,0,-1987,-87,-81,598,-35,6,123,0,0,0,0,0,0,0,0,0,0,0
0,0,-1988,-85,-83,598,-33,5,123,0,0,0,0,0,0,0,0,0,0,0
0,0,-1993,-84,-80,598,-34,8,124,0,0,0,0,0,0,0,0,0,0,0
0,0,-1991,-83,-72,597,-32,7,135,0,0,0,0,0,0,0,0,0,0,0
0,0,-1990,-92,-83,597,-33,6,114,0,0,0,0,0,0,0,0,0,0,0
0,0,-1986,-88,-76,597,-35,6,127,0,0,0,0,0,0,0,0,0,0,0
0,0,-1986,-84,-84,598,-34,7,126,0,0,0,0,0,0,0,0,0,0,0
0,0,-1992,-82,-77,598,-35,5,126,0,0,0,0,0,0,0,0,0,0,0
0,0,-1988,-86,-86,597,-36,5,115,0,0,0,0,0,0,0,0,0,0,0
0,0,-1992,-83,-75,597,-35,7,128,0,0,0,0,0,0,0,0,0,0,0
0,0,-1993,-86,-82,597,-34,7,118,0,0,0,0,0,0,0,0,0,0,0
0,0,-1990,-87,-85,597,-34,7,117,0,0,0,0,0,0,0,0,0,0,0
0,0,-1992,-89,-72,597,-35,5,123,0,0,0,0,0,0,0,0,0,0,0
0,0,-1989,-87,-88,598,-33,8,118,0,0,0,0,0,0,0,0,0,0,0
0,0,-1990,-86,-73,599,-32,7,134,0,0,0,0,0,0,0,0,0,0,0
0,0,-1992,-96,-77,597,-32,7,116,0,0,0,0,0,0,0,0,0,0,0
0,0,-1989,-90,-91,595,-33,7,108,0,0,0,0,0,0,0,0,0,0,0
0,0,-1984,-85,-78,597,-34,5,130,0,0,0,0,0,0,0,0,0,0,0
0,0,-1992,-86,-81,596,-35,6,117,0,0,0,0,0,0,0,0,0,0,0
0,0,-1983,-91,-80,598,-34,7,126,0,0,0,0,0,0,0,0,0,0,0
0,0,-1988,-83,-81,598,-34,5,126,0,0,0,0,0,0,0,0,0,0,0
0,0,-1994,-87,-70,598,-34,6,128,0,0,0,0,0,0,0,0,0,0,0
0,0,-1984,-82,-73,598,-33,7,142,0,0,0,0,0,0,0,0,0,0,0
0,0,-1985,-91,-79,598,-34,6,124,0,0,0,0,0,0,0,0,0,0,0
0,0,-1984,-91,-79,598,-35,6,124,0,0,0,0,0,0,0,0,0,0,0
0,0,-1990,-90,-79,598,-34,6,120,0,0,0,0,0,0,0,0,0,0,0
0,0,-1995,-86,-78,597,-34,6,119,0,0,0,0,0,0,0,0,0,0,0
0,0,-1994,-82,-82,598,-33,6,122,0,0,0,0,0,0,0,0,0,0,0
0,0,-1992,-88,-74,597,-34,7,125,0,0,0,0,0,0,0,0,0,0,0
0,0,-1989,-87,-71,596,-32,7,133,0,0,0,0,0,0,0,0,0,0,0
0,0,-1984,-86,-74,599,-33,6,137,0,0,0,0,0,0,0,0,0,0,0
0,0,-1986,-87,-71,599,-34,7,137,0,0,0,0,0,0,0,0,0,0,0
0,0,-1987,-88,-82,598,-34,6,122,0,0,0,0,0,0,0,0,0,0,0
0,0,-1989,-81,-84,598,-35,5,123,0,0,0,0,0,0,0,0,0,0,0
0,0,-2001,-85,-68,599,-34,5,125,0,0,0,0,0,0,0,0,0,0,0
0,0,-1986,-86,-81,598,-33,8,129,0,0,0,0,0,0,0,0,0,0,0
0,0,-1988,-89,-76,597,-34,8,127,0,0,0,0,0,0,0,0,0,0,0
0,0,-1991,-87,-74,598,-36,6,125,0,0,0,0,0,0,0,0,0,0,0
0,0,-1990,-91,-81,597,-34,8,118,0,0,0,0,0,0,0,0,0,0,0
0,0,-1989,-82,-76,599,-35,7,133,0,0,0,0,0,0,0,0,0,0,0
0,0,-1987,-81,-66,598,-35,7,145,0,0,0,0,0,0,0,0,0,0,0
0,0,-1984,-82,-70,596,-34,8,143,0,0,0,0,0,0,0,0,0,0,0
0,0,-1980,-88,-82,595,-34,8,128,0,0,0,0,0,0,0,0,0,0,0
0,0,-1986,-93,-82,596,-35,6,115,0,0,0,0,0,0,0,0,0,0,0
0,0,-1994,-80,-85,599,-33,8,124,0,0,0,0,0,0,0,0,0,0,0
0,0,-1990,-76,-97,597,-33,6,116,0,0,0,0,0,0,0,0,0,0,0
0,0,-1986,-77,-72,598,-34,7,145,0,0,0,0,0,0,0,0,0,0,0
0,0,-1993,-85,-76,597,-33,8,127,0,0,0,0,0,0,0,0,0,0,0
0,0,-1991,-81,-68,598,-35,7,139,0,0,0,0,0,0,0,0,0,0,0
0,0,-1990,-86,-81,598,-32,8,126,0,0,0,0,0,0,0,0,0,0,0
0,0,-1994,-84,-83,597,-33,7,119,0,0,0,0,0,0,0,0,0,0,0
0,0,-1991,-84,-78,597,-32,6,127,0,0,0,0,0,0,0,0,0,0,0
0,0,-1995,-81,-76,597,-33,7,128,0,0,0,0,0,0,0,0,0,0,0
0,0,-1988,-85,-76,596,-34,7,129,0,0,0,0,0,0,0,0,0,0,0
0,0,-1993,-92,-76,599,-33,6,120,0,0,0,0,0,0,0,0,0,0,0
0,0,-1988,-85,-79,597,-35,7,126,0,0,0,0,0,0,0,0,0,0,0
0,0,-1979,-86,-74,598,-35,7,140,0,0,0,0,0,0,0,0,0,0,0
0,0,-1986,-87,-64,595,-34,6,139,0,0,0,0,0,0,0,0,0,0,0
0,0,-1991,-82,-70,598,-32,8,140,0,0,0,0,0,0,0,0,0,0,0
0,0,-1982,-88,-78,598,-36,10,133,0,0,0,0,0,0,0,0,0,0,0
0,0,-1987,-78,-75,598,-34,7,140,0,0,0,0,0,0,0,0,0,0,0
0,0,-1989,-82,-69,598,-34,9,142,0,0,0,0,0,0,0,0,0,0,0
0,0,-1984,-84,-77,598,-33,8,137,0,0,0,0,0,0,0,0,0,0,0
0,0,-1988,-84,-76,598,-33,6,132,0,0,0,0,0,0,0,0,0,0,0
0,0,-1992,-86,-72,600,-33,7,133,0,0,0,0,0,0,0,0,0,0,0
0,0,-1989,-80,-74,596,-35,9,136,0,0,0,0,0,0,0,0,0,0,0
0,0,-1986,-75,-75,595,-34,7,141,0,0,0,0,0,0,0,0,0,0,0
0,0,-1992,-87,-80,596,-33,9,122,0,0,0,0,0,0,0,0,0,0,0
0,0,-1988,-86,-81,596,-32,7,125,0,0,0,0,0,0,0,0,0,0,0
0,0,-1982,-86,-81,597,-34,7,130,0,0,0,0,0,0,0,0,0,0,0
0,0,-1991,-82,-82,597,-35,6,122,0,0,0,0,0,0,0,0,0,0,0
0,0,-1984,-82,-83,597,-32,6,131,0,0,0,0,0,0,0,0,0,0,0
0,0,-1989,-85,-78,597,-35,7,126,0,0,0,0,0,0,0,0,0,0,0
0,0,-1990,-86,-86,597,-33,8,119,0,0,0,0,0,0,0,0,0,0,0
0,0,-1983,-91,-82,598,-33,8,126,0,0,0,0,0,0,0,0,0,0,0
0,0,-1986,-83,-78,598,-35,5,130,0,0,0,0,0,0,0,0,0,0,0
0,0,-1992,-88,-82,597,-33,5,116,0,0,0,0,0,0,0,0,0,0,0
0,0,-1991,-87,-73,597,-32,7,130,0,0,0,0,0,0,0,0,0,0,0
0,0,-1983,-88,-60,597,-33,7,149,0,0,0,0,0,0,0,0,0,0,0
0,0,-1991,-91,-77,597,-34,4,117,0,0,0,0,0,0,0,0,0,0,0
0,0,-1985,-85,-67,596,-33,7,142,0,0,0,0,0,0,0,0,0,0,0
0,0,-1983,-92,-73,597,-35,5,128,0,0,0,0,0,0,0,0,0,0,0
0,0,-1998,-89,-83,600,-34,6,111,0,0,0,0,0,0,0,0,0,0,0
0,0,-1997,-87,-67,597,-34,6,127,0,0,0,0,0,0,0,0,0,0,0
0,0,-1992,-85,-69,597,-33,5,132,0,0,0,0,0,0,0,0,0,0,0
0,0,-1986,-83,-90,597,-34,8,121,0,0,0,0,0,0,0,0,0,0,0
0,0,-1995,-82,-84,596,-34,8,118,0,0,0,0,0,0,0,0,0,0,0
0,0,-1988,-91,-65,597,-33,5,134,0,0,0,0,0,0,0,0,0,0,0
0,0,-1993,-83,-69,597,-32,8,137,0,0,0,0,0,0,0,0,0,0,0
0,0,-1995,-80,-80,596,-34,6,122,0,0,0,0,0,0,0,0,0,0,0
0,0,-1991,-88,-69,596,-33,5,129,0,0,0,0,0,0,0,0,0,0,0
0,0,-1994,-90,-78,597,-35,6,115,0,0,0,0,0,0,0,0,0,0,0
0,0,-1989,-89,-73,597,-35,7,127,0,0,0,0,0,0,0,0,0,0,0
0,0,-1992,-80,-73,597,-33,7,135,0,0,0,0,0,0,0,0,0,0,0
0,0,-1999,-86,-72,597,-34,7,122,0,0,0,0,0,0,0,0,0,0,0
0,0,-1980,-85,-78,598,-33,7,138,0,0,0,0,0,0,0,0,0,0,0
0,0,-1990,-83,-73,597,-33,6,133,0,0,0,0,0,0,0,0,0,0,0
0,0,-1982,-84,-74,597,-34,6,138,0,0,0,0,0,0,0,0,0,0,0
0,0,-1986,-86,-79,597,-34,8,129,0,0,0,0,0,0,0,0,0,0,0
0,0,-1982,-87,-81,597,-34,5,127,0,0,0,0,0,0,0,0,0,0,0
0,0,-1990,-87,-78,597,-35,7,123,0,0,0,0,0,0,0,0,0,0,0
0,0,-1987,-91,-77,597,-35,5,121,0,0,0,0,0,0,0,0,0,0,0
0,0,-1981,-77,-77,597,-33,5,143,0,0,0,0,0,0,0,0,0,0,0
0,0,-1986,-85,-80,596,-34,6,126,0,0,0,0,0,0,0,0,0,0,0
0,0,-1984,-87,-75,596,-33,6,132,0,0,0,0,0,0,0,0,0,0,0
0,0,-1992,-86,-70,596,-33,6,130,0,0,0,0,0,0,0,0,0,0,0
0,0,-1987,-87,-86,598,-35,8,120,0,0,0,0,0,0,0,0,0,0,0
0,0,-1986,-86,-79,599,-32,5,130,0,0,0,0,0,0,0,0,0,0,0
0,0,-1992,-83,-75,598,-34,6,129,0,0,0,0,0,0,0,0,0,0,0
0,0,-1981,-81,-73,597,-34,5,142,0,0,0,0,0,0,0,0,0,0,0
0,0,-1989,-86,-81,597,-33,6,123,0,0,0,0,0,0,0,0,0,0,0
0,0,-1995,-84,-80,597,-33,7,121,0,0,0,0,0,0,0,0,0,0,0
0,0,-1980,-82,-77,596,-34,7,139,0,0,0,0,0,0,0,0,0,0,0
0,0,-1991,-89,-88,597,-34,8,112,0,0,0,0,0,0,0,0,0,0,0
0,0,-1989,-83,-73,597,-34,6,133,0,0,0,0,0,0,0,0,0,0,0
0,0,-1985,-82,-79,596,-34,5,130,0,0,0,0,0,0,0,0,0,0,0
0,0,-1985,-83,-73,597,-33,6,138,0,0,0,0,0,0,0,0,0,0,0
0,0,-1991,-85,-76,598,-34,6,127,0,0,0,0,0,0,0,0,0,0,0
0,0,-1992,-89,-83,597,-35,8,115,0,0,0,0,0,0,0,0,0,0,0
0,0,-1989,-85,-75,597,-34,7,130,0,0,0,0,0,0,0,0,0,0,0
0,0,-1988,-89,-85,597,-36,7,115,0,0,0,0,0,0,0,0,0,0,0
0,0,-1979,-87,-67,597,-35,7,145,0,0,0,0,0,0,0,0,0,0,0
0,0,-1983,-77,-74,597,-33,7,146,0,0,0,0,0,0,0,0,0,0,0
0,0,-1989,-83,-80,596,-34,8,127,0,0,0,0,0,0,0,0,0,0,0
0,0,-1989,-80,-88,597,-33,7,123,0,0,0,0,0,0,0,0,0,0,0
0,0,-1990,-84,-83,596,-35,8,121,0,0,0,0,0,0,0,0,0,0,0
0,0,-1995,-86,-83,598,-33,7,117,0,0,0,0,0,0,0,0,0,0,0
0,0,-1994,-89,-81,597,-34,5,113,0,0,0,0,0,0,0,0,0,0,0
0,0,-1990,-81,-81,597,-33,5,126,0,0,0,0,0,0,0,0,0,0,0
0,0,-1987,-92,-88,597,-35,6,110,0,0,0,0,0,0,0,0,0,0,0
0,0,-1987,-85,-81,596,-35,6,123,0,0,0,0,0,0,0,0,0,0,0
0,0,-1986,-81,-81,596,-35,6,128,0,0,0,0,0,0,0,0,0,0,0
0,0,-1990,-84,-77,597,-33,5,127,0,0,0,0,0,0,0,0,0,0,0
0,0,-1990,-90,-71,596,-35,6,125,0,0,0,0,0,0,0,0,0,0,0
0,0,-1992,-87,-70,596,-33,9,132,0,0,0,0,0,0,0,0,0,0,0
0,0,-1993,-84,-69,596,-35,7,131,0,0,0,0,0,0,0,0,0,0,0
0,0,-1989,-81,-89,597,-33,6,120,0,0,0,0,0,0,0,0,0,0,0
0,0,-1988,-87,-77,597,-33,7,128,0,0,0,0,0,0,0,0,0,0,0
0,0,-1987,-85,-75,597,-35,7,131,0,0,0,0,0,0,0,0,0,0,0
0,0,-1984,-93,-87,596,-36,6,111,0,0,0,0,0,0,0,0,0,0,0
0,0,-1989,-81,-78,598,-35,6,130,0,0,0,0,0,0,0,0,0,0,0
0,0,-1990,-85,-80,598,-33,7,126,0,0,0,0,0,0,0,0,0,0,0
0,0,-1991,-88,-80,598,-33,7,122,0,0,0,0,0,0,0,0,0,0,0
0,0,-1991,-78,-81,597,-33,6,129,0,0,0,0,0,0,0,0,0,0,0
0,0,-1991,-83,-73,597,-35,7,131,0,0,0,0,0,0,0,0,0,0,0
0,0,-1987,-83,-75,597,-32,6,135,0,0,0,0,0,0,0,0,0,0,0
0,0,-1992,-72,-76,598,-35,4,136,0,0,0,0,0,0,0,0,0,0,0
0,0,-1988,-88,-83,596,-35,7,118,0,0,0,0,0,0,0,0,0,0,0
0,0,-1995,-91,-88,598,-33,7,107,0,0,0,0,0,0,0,0,0,0,0
0,0,-1985,-89,-66,598,-35,7,139,0,0,0,0,0,0,0,0,0,0,0
0,0,-1990,-84,-67,597,-34,5,136,0,0,0,0,0,0,0,0,0,0,0
0,0,-1984,-87,-83,597,-36,7,123,0,0,0,0,0,0,0,0,0,0,0
0,0,-1984,-92,-80,600,-34,8,127,0,0,0,0,0,0,0,0,0,0,0
0,0,-1988,-81,-78,597,-32,10,137,0,0,0,0,0,0,0,0,0,0,0
0,0,-1991,-91,-81,597,-34,7,116,0,0,0,0,0,0,0,0,0,0,0
0,0,-1988,-84,-74,596,-34,6,131,0,0,0,0,0,0,0,0,0,0,0
0,0,-1991,-88,-73,598,-34,8,129,0,0,0,0,0,0,0,0,0,0,0
0,0,-1986,-88,-84,597,-34,6,120,0,0,0,0,0,0,0,0,0,0,0
0,0,-1995,-84,-74,598,-34,8,128,0,0,0,0,0,0,0,0,0,0,0
0,0,-1986,-86,-81,597,-33,8,128,0,0,0,0,0,0,0,0,0,0,0
0,0,-1985,-82,-85,598,-33,5,127,0,0,0,0,0,0,0,0,0,0,0
0,0,-1991,-88,-79,597,-34,6,120,0,0,0,0,0,0,0,0,0,0,0
0,0,-1989,-87,-79,598,-34,7,125,0,0,0,0,0,0,0,0,0,0,0
0,0,-1986,-87,-78,596,-35,5,124,0,0,0,0,0,0,0,0,0,0,0
0,0,-1994,-89,-80,598,-33,6,117,0,0,0,0,0,0,0,0,0,0,0
0,0,-1983,-87,-74,597,-33,7,136,0,0,0,0,0,0,0,0,0,0,0
0,0,-1990,-91,-75,598,-35,5,121,0,0,0,0,0,0,0,0,0,0,0
0,0,-1988,-91,-74,597,-34,8,127,0,0,0,0,0,0,0,0,0,0,0
0,0,-1991,-86,-83,597,-34,6,118,0,0,0,0,0,0,0,0,0,0,0
0,0,-1990,-87,-82,597,-35,7,119,0,0,0,0,0,0,0,0,0,0,0
0,0,-1993,-86,-69,596,-32,7,132,0,0,0,0,0,0,0,0,0,0,0
0,0,-1992,-90,-71,598,-33,6,127,0,0,0,0,0,0,0,0,0,0,0
0,0,-1985,-97,-81,597,-34,6,115,0,0,0,0,0,0,0,0,0,0,0
0,0,-2002,-91,-82,598,-34,4,102,0,0,0,0,0,0,0,0,0,0,0
0,0,-1995,-95,-91,597,-34,8,99,0,0,0,0,0,0,0,0,0,0,0
0,0,-1990,-96,-76,597,-33,8,119,0,0,0,0,0,0,0,0,0,0,0
0,0,-1985,-83,-64,596,-32,7,148,0,0,0,0,0,0,0,0,0,0,0
0,0,-1989,-75,-74,596,-35,7,139,0,0,0,0,0,0,0,0,0,0,0
0,0,-1994,-96,-83,597,-33,7,107,0,0,0,0,0,0,0,0,0,0,0
0,0,-1992,-87,-77,596,-34,9,124,0,0,0,0,0,0,0,0,0,0,0
0,0,-1987,-89,-71,597,-36,7,130,0,0,0,0,0,0,0,0,0,0,0
0,0,-1988,-91,-74,597,-34,7,126,0,0,0,0,0,0,0,0,0,0,0
0,0,-1993,-85,-81,597,-34,6,119,0,0,0,0,0,0,0,0,0,0,0
0,0,-1994,-88,-69,597,-34,7,128,0,0,0,0,0,0,0,0,0,0,0
0,0,-1981,-93,-74,597,-34,7,131,0,0,0,0,0,0,0,0,0,0,0
0,0,-1983,-87,-71,596,-33,5,136,0,0,0,0,0,0,0,0,0,0,0
0,0,-1990,-95,-71,598,-34,7,124,0,0,0,0,0,0,0,0,0,0,0
0,0,-1991,-89,-70,597,-33,6,129,0,0,0,0,0,0,0,0,0,0,0
0,0,-1983,-92,-82,596,-34,6,120,0,0,0,0,0,0,0,0,0,0,0
0,0,-1989,-84,-71,597,-34,6,134,0,0,0,0,0,0,0,0,0,0,0
0,0,-1983,-85,-71,597,-35,7,139,0,0,0,0,0,0,0,0,0,0,0
0,0,-1984,-90,-75,598,-35,7,130,0,0,0,0,0,0,0,0,0,0,0
0,0,-1982,-75,-78,596,-35,7,142,0,0,0,0,0,0,0,0,0,0,0
0,0,-1992,-88,-100,598,-37,7,97,0,0,0,0,0,0,0,0,0,0,0
0,0,-1987,-86,-80,598,-35,7,126,0,0,0,0,0,0,0,0,0,0,0
0,0,-1982,-87,-80,598,-34,6,130,0,0,0,0,0,0,0,0,0,0,0
0,0,-1987,-84,-82,598,-34,6,126,0,0,0,0,0,0,0,0,0,0,0
0,0,-1993,-89,-68,600,-33,7,133,0,0,0,0,0,0,0,0,0,0,0
0,0,-1991,-86,-71,597,-35,7,130,0,0,0,0,0,0,0,0,0,0,0
0,0,-1981,-88,-67,599,-35,6,143,0,0,0,0,0,0,0,0,0,0,0
0,0,-1990,-81,-70,596,-35,7,136,0,0,0,0,0,0,0,0,0,0,0
0,0,-1983,-82,-72,600,-32,7,147,0,0,0,0,0,0,0,0,0,0,0
0,0,-1993,-87,-82,596,-35,7,115,0,0,0,0,0,0,0,0,0,0,0
0,0,-1988,-93,-82,598,-34,6,116,0,0,0,0,0,0,0,0,0,0,0
0,0,-1996,-92,-81,599,-35,7,111,0,0,0,0,0,0,0,0,0,0,0
0,0,-1991,-80,-76,597,-34,6,131,0,0,0,0,0,0,0,0,0,0,0
0,0,-1987,-84,-78,597,-34,6,129,0,0,0,0,0,0,0,0,0,0,0
0,0,-1996,-85,-76,598,-32,9,127,0,0,0,0,0,0,0,0,0,0,0
0,0,-1989,-84,-80,597,-33,7,127,0,0,0,0,0,0,0,0,0,0,0
0,0,-1987,-86,-81,598,-35,8,126,0,0,0,0,0,0,0,0,0,0,0
0,0,-1981,-88,-58,597,-34,8,153,0,0,0,0,0,0,0,0,0,0,0
0,0,-1987,-85,-80,600,-35,7,129,0,0,0,0,0,0,0,0,0,0,0
0,0,-1985,-85,-69,598,-34,5,139,0,0,0,0,0,0,0,0,0,0,0
0,0,-1986,-89,-79,598,-35,6,124,0,0,0,0,0,0,0,0,0,0,0
0,0,-1989,-79,-72,598,-32,8,143,0,0,0,0,0,0,0,0,0,0,0
0,0,-1990,-83,-67,598,-32,9,144,0,0,0,0,0,0,0,0,0,0,0
0,0,-1987,-80,-79,598,-35,8,134,0,0,0,0,0,0,0,0,0,0,0
0,0,-1993,-84,-80,598,-34,6,122,0,0,0,0,0,0,0,0,0,0,0
0,0,-1992,-84,-78,597,-35,6,123,0,0,0,0,0,0,0,0,0,0,0
0,0,-1988,-93,-67,597,-32,7,133,0,0,0,0,0,0,0,0,0,0,0
0,0,-1989,-84,-72,599,-34,7,136,0,0,0,0,0,0,0,0,0,0,0
0,0,-1989,-91,-67,598,-33,6,133,0,0,0,0,0,0,0,0,0,0,0
0,0,-1992,-84,-80,596,-35,5,119,0,0,0,0,0,0,0,0,0,0,0
0,0,-1993,-84,-71,596,-34,8,131,0,0,0,0,0,0,0,0,0,0,0
0,0,-1986,-90,-66,597,-34,6,136,0,0,0,0,0,0,0,0,0,0,0
0,0,-1990,-90,-71,596,-34,7,127,0,0,0,0,0,0,0,0,0,0,0
0,0,-1987,-90,-87,598,-34,8,117,0,0,0,0,0,0,0,0,0,0,0
0,0,-1983,-86,-74,598,-34,8,138,0,0,0,0,0,0,0,0,0,0,0
0,0,-1992,-91,-74,597,-33,6,122,0,0,0,0,0,0,0,0,0,0,0
0,0,-1996,-90,-79,597,-34,5,112,0,0,0,0,0,0,0,0,0,0,0
0,0,-1990,-95,-64,598,-33,8,133,0,0,0,0,0,0,0,0,0,0,0
0,0,-1990,-81,-65,597,-33,6,143,0,0,0,0,0,0,0,0,0,0,0
0,0,-1986,-86,-77,598,-34,7,131,0,0,0,0,0,0,0,0,0,0,0
0,0,-1982,-85,-79,597,-35,4,129,0,0,0,0,0,0,0,0,0,0,0
0,0,-1986,-88,-75,597,-34,5,128,0,0,0,0,0,0,0,0,0,0,0
0,0,-1987,-73,-67,598,-34,6,152,0,0,0,0,0,0,0,0,0,0,0
0,0,-1988,-84,-81,598,-33,7,128,0,0,0,0,0,0,0,0,0,0,0
0,0,-1988,-89,-72,598,-34,8,132,0,0,0,0,0,0,0,0,0,0,0
0,0,-1993,-91,-71,597,-35,6,122,0,0,0,0,0,0,0,0,0,0,0
0,0,-1988,-98,-77,597,-33,7,117,0,0,0,0,0,0,0,0,0,0,0
0,0,-1995,-85,-77,598,-33,6,123,0,0,0,0,0,0,0,0,0,0,0
0,0,-1987,-88,-67,598,-33,5,137,0,0,0,0,0,0,0,0,0,0,0
0,0,-1990,-85,-82,595,-32,5,120,0,0,0,0,0,0,0,0,0,0,0
0,0,-1990,-83,-80,597,-34,6,125,0,0,0,0,0,0,0,0,0,0,0
0,0,-1988,-75,-75,598,-34,6,141,0,0,0,0,0,0,0,0,0,0,0
0,0,-1992,-83,-74,597,-34,5,128,0,0,0,0,0,0,0,0,0,0,0
0,0,-1992,-89,-80,597,-34,7,118,0,0,0,0,0,0,0,0,0,0,0
0,0,-1989,-86,-74,598,-34,8,132,0,0,0,0,0,0,0,0,0,0,0
0,0,-1984,-83,-88,599,-33,7,127,0,0,0,0,0,0,0,0,0,0,0
0,0,-1982,-86,-74,597,-34,6,136,0,0,0,0,0,0,0,0,0,0,0
0,0,-1990,-94,-75,598,-34,6,120,0,0,0,0,0,0,0,0,0,0,0
0,0,-1991,-80,-82,597,-35,6,124,0,0,0,0,0,0,0,0,0,0,0
0,0,-1985,-91,-74,597,-35,6,127,0,0,0,0,0,0,0,0,0,0,0
0,0,-1994,-87,-79,597,-34,6,118,0,0,0,0,0,0,0,0,0,0,0
0,0,-1992,-82,-76,599,-33,7,132,0,0,0,0,0,0,0,0,0,0,0
0,0,-1986,-87,-76,597,-34,7,130,0,0,0,0,0,0,0,0,0,0,0
0,0,-1991,-93,-78,597,-33,6,117,0,0,0,0,0,0,0,0,0,0,0
0,0,-1989,-87,-72,597,-33,6,131,0,0,0,0,0,0,0,0,0,0,0
0,0,-1994,-82,-81,598,-34,6,122,0,0,0,0,0,0,0,0,0,0,0
0,0,-1985,-83,-69,596,-35,6,139,0,0,0,0,0,0,0,0,0,0,0
0,0,-1981,-83,-69,597,-35,7,145,0,0,0,0,0,0,0,0,0,0,0
0,0,-1986,-82,-84,597,-34,5,125,0,0,0,0,0,0,0,0,0,0,0
0,0,-1990,-85,-73,597,-33,7,132,0,0,0,0,0,0,0,0,0,0,0
0,0,-1988,-79,-75,598,-34,5,136,0,0,0,0,0,0,0,0,0,0,0
0,0,-1995,-79,-80,597,-33,5,124,0,0,0,0,0,0,0,0,0,0,0
0,0,-1988,-80,-71,597,-33,6,140,0,0,0,0,0,0,0,0,0,0,0
0,0,-1994,-90,-85,598,-34,7,111,0,0,0,0,0,0,0,0,0,0,0
0,0,-1993,-84,-79,595,-33,8,123,0,0,0,0,0,0,0,0,0,0,0
0,0,-1994,-84,-73,596,-34,8,128,0,0,0,0,0,0,0,0,0,0,0
0,0,-1984,-84,-69,596,-34,7,141,0,0,0,0,0,0,0,0,0,0,0
0,0,-1983,-90,-73,598,-34,6,133,0,0,0,0,0,0,0,0,0,0,0
0,0,-1992,-88,-61,600,-33,7,142,0,0,0,0,0,0,0,0,0,0,0
0,0,-1988,-88,-88,597,-33,7,116,0,0,0,0,0,0,0,0,0,0,0
0,0,-1989,-76,-86,597,-35,9,129,0,0,0,0,0,0,0,0,0,0,0
0,0,-1995,-84,-74,597,-34,6,125,0,0,0,0,0,0,0,0,0,0,0
0,0,-1992,-91,-79,598,-33,8,120,0,0,0,0,0,0,0,0,0,0,0
0,0,-1991,-87,-84,598,-34,7,118,0,0,0,0,0,0,0,0,0,0,0
0,0,-1994,-91,-82,597,-35,6,110,0,0,0,0,0,0,0,0,0,0,0
0,0,-1988,-85,-80,599,-35,8,128,0,0,0,0,0,0,0,0,0,0,0
0,0,-1993,-93,-82,597,-35,7,110,0,0,0,0,0,0,0,0,0,0,0
0,0,-1979,-84,-87,598,-33,6,130,0,0,0,0,0,0,0,0,0,0,0
0,0,-1980,-82,-90,598,-36,6,125,0,0,0,0,0,0,0,0,0,0,0
0,0,-1991,-89,-71,596,-33,7,128,0,0,0,0,0,0,0,0,0,0,0
0,0,-1991,-89,-78,598,-35,7,121,0,0,0,0,0,0,0,0,0,0,0
0,0,-1987,-86,-82,597,-34,6,123,0,0,0,0,0,0,0,0,0,0,0
0,0,-1989,-85,-78,596,-34,7,126,0,0,0,0,0,0,0,0,0,0,0
0,0,-1983,-87,-84,596,-32,5,124,0,0,0,0,0,0,0,0,0,0,0
0,0,-1982,-93,-92,599,-32,7,116,0,0,0,0,0,0,0,0,0,0,0
0,0,-1991,-92,-89,597,-35,6,105,0,0,0,0,0,0,0,0,0,0,0
0,0,-1987,-81,-74,596,-33,5,135,0,0,0,0,0,0,0,0,0,0,0
0,0,-1988,-84,-85,596,-33,6,121,0,0,0,0,0,0,0,0,0,0,0
0,0,-1989,-82,-74,596,-34,6,132,0,0,0,0,0,0,0,0,0,0,0
0,0,-1992,-84,-72,598,-35,8,132,0,0,0,0,0,0,0,0,0,0,0
0,0,-1995,-86,-75,596,-34,7,122,0,0,0,0,0,0,0,0,0,0,0
0,0,-1984,-88,-72,598,-34,7,136,0,0,0,0,0,0,0,0,0,0,0
0,0,-1990,-82,-71,597,-35,7,135,0,0,0,0,0,0,0,0,0,0,0
0,0,-1995,-87,-75,597,-36,7,120,0,0,0,0,0,0,0,0,0,0,0
0,0,-1992,-81,-79,598,-33,7,129,0,0,0,0,0,0,0,0,0,0,0
0,0,-1994,-90,-64,597,-33,8,133,0,0,0,0,0,0,0,0,0,0,0
0,0,-1990,-87,-80,597,-34,7,122,0,0,0,0,0,0,0,0,0,0,0
0,0,-1992,-82,-90,597,-34,7,115,0,0,0,0,0,0,0,0,0,0,0
0,0,-1995,-82,-89,598,-34,8,115,0,0,0,0,0,0,0,0,0,0,0
0,0,-1986,-89,-71,598,-34,7,134,0,0,0,0,0,0,0,0,0,0,0
0,0,-1994,-88,-80,599,-34,9,121,0,0,0,0,0,0,0,0,0,0,0
0,0,-1995,-85,-81,597,-33,6,118,0,0,0,0,0,0,0,0,0,0,0
0,0,-1985,-90,-77,598,-34,7,128,0,0,0,0,0,0,0,0,0,0,0
0,0,-1987,-80,-72,597,-34,6,139,0,0,0,0,0,0,0,0,0,0,0
0,0,-1987,-81,-68,598,-33,5,143,0,0,0,0,0,0,0,0,0,0,0
0,0,-1994,-89,-74,598,-33,7,124,0,0,0,0,0,0,0,0,0,0,0
0,0,-1992,-92,-77,596,-34,7,117,0,0,0,0,0,0,0,0,0,0,0
0,0,-1978,-86,-86,598,-35,7,129,0,0,0,0,0,0,0,0,0,0,0
0,0,-1987,-85,-67,597,-33,6,140,0,0,0,0,0,0,0,0,0,0,0
0,0,-1985,-82,-81,597,-35,6,129,0,0,0,0,0,0,0,0,0,0,0
0,0,-1990,-85,-77,598,-34,8,129,0,0,0,0,0,0,0,0,0,0,0
0,0,-1986,-83,-77,597,-34,8,134,0,0,0,0,0,0,0,0,0,0,0
0,0,-1989,-89,-78,599,-33,8,127,0,0,0,0,0,0,0,0,0,0,0
0,0,-1995,-80,-73,598,-34,7,132,0,0,0,0,0,0,0,0,0,0,0
0,0,-1987,-85,-67,597,-34,7,140,0,0,0,0,0,0,0,0,0,0,0
0,0,-1983,-85,-82,597,-34,5,127,0,0,0,0,0,0,0,0,0,0,0
0,0,-1989,-93,-79,600,-35,7,120,0,0,0,0,0,0,0,0,0,0,0
0,0,-1995,-82,-78,597,-34,7,124,0,0,0,0,0,0,0,0,0,0,0
0,0,-1994,-86,-74,598,-33,6,126,0,0,0,0,0,0,0,0,0,0,0
0,0,-1988,-89,-73,597,-34,7,129,0,0,0,0,0,0,0,0,0,0,0
0,0,-1992,-91,-81,597,-36,6,112,0,0,0,0,0,0,0,0,0,0,0
0,0,-1989,-82,-69,597,-33,8,141,0,0,0,0,0,0,0,0,0,0,0
0,0,-1991,-85,-76,598,-32,8,131,0,0,0,0,0,0,0,0,0,0,0
0,0,-1990,-88,-73,597,-33,7,129,0,0,0,0,0,0,0,0,0,0,0
0,0,-1988,-88,-76,596,-34,6,125,0,0,0,0,0,0,0,0,0,0,0
0,0,-1988,-88,-79,596,-34,7,123,0,0,0,0,0,0,0,0,0,0,0
0,0,-1991,-84,-77,597,-37,6,123,0,0,0,0,0,0,0,0,0,0,0
0,0,-2001,-88,-76,599,-35,5,113,0,0,0,0,0,0,0,0,0,0,0
0,0,-1988,-86,-81,598,-35,6,123,0,0,0,0,0,0,0,0,0,0,0
0,0,-1992,-86,-88,597,-34,6,112,0,0,0,0,0,0,0,0,0,0,0
0,0,-1990,-91,-80,597,-33,7,119,0,0,0,0,0,0,0,0,0,0,0
0,0,-1989,-84,-74,598,-35,6,131,0,0,0,0,0,0,0,0,0,0,0
0,0,-1992,-83,-66,596,-34,5,135,0,0,0,0,0,0,0,0,0,0,0
0,0,-1992,-93,-77,599,-32,7,121,0,0,0,0,0,0,0,0,0,0,0
0,0,-1989,-88,-80,598,-33,7,124,0,0,0,0,0,0,0,0,0,0,0
0,0,-1992,-90,-78,600,-34,4,119,0,0,0,0,0,0,0,0,0,0,0
0,0,-1986,-87,-78,597,-34,7,128,0,0,0,0,0,0,0,0,0,0,0
0,0,-1990,-86,-74,595,-34,7,127,0,0,0,0,0,0,0,0,0,0,0
0,0,-1997,-93,-83,596,-35,6,103,0,0,0,0,0,0,0,0,0,0,0
0,0,-1992,-87,-79,596,-34,8,121,0,0,0,0,0,0,0,0,0,0,0
0,0,-1991,-89,-74,597,-33,6,125,0,0,0,0,0,0,0,0,0,0,0
0,0,-1987,-89,-74,597,-33,6,129,0,0,0,0,0,0,0,0,0,0,0
0,0,-1993,-82,-86,599,-35,7,119,0,0,0,0,0,0,0,0,0,0,0
0,0,-1994,-83,-84,598,-35,7,118,0,0,0,0,0,0,0,0,0,0,0
0,0,-1989,-88,-83,597,-34,7,119,0,0,0,0,0,0,0,0,0,0,0
0,0,-1995,-83,-82,597,-35,8,119,0,0,0,0,0,0,0,0,0,0,0
0,0,-1988,-88,-88,597,-36,6,112,0,0,0,0,0,0,0,0,0,0,0
0,0,-1985,-88,-83,598,-35,8,124,0,0,0,0,0,0,0,0,0,0,0
0,0,-1988,-81,-82,598,-34,7,129,0,0,0,0,0,0,0,0,0,0,0
0,0,-1989,-83,-75,597,-33,5,131,0,0,0,0,0,0,0,0,0,0,0
0,0,-1992,-87,-69,597,-35,6,129,0,0,0,0,0,0,0,0,0,0,0
0,0,-1991,-87,-82,598,-35,5,117,0,0,0,0,0,0,0,0,0,0,0
0,0,-1994,-94,-79,596,-34,6,110,0,0,0,0,0,0,0,0,0,0,0
0,0,-1986,-83,-74,596,-33,5,134,0,0,0,0,0,0,0,0,0,0,0
0,0,-1988,-86,-72,597,-33,7,134,0,0,0,0,0,0,0,0,0,0,0
0,0,-1983,-85,-76,597,-34,6,134,0,0,0,0,0,0,0,0,0,0,0
0,0,-1985,-87,-68,597,-35,6,137,0,0,0,0,0,0,0,0,0,0,0
0,0,-1994,-85,-76,597,-33,6,124,0,0,0,0,0,0,0,0,0,0,0
0,0,-1985,-92,-74,599,-35,7,129,0,0,0,0,0,0,0,0,0,0,0
0,0,-1981,-82,-75,597,-35,7,140,0,0,0,0,0,0,0,0,0,0,0
0,0,-1991,-91,-67,596,-34,7,129,0,0,0,0,0,0,0,0,0,0,0
0,0,-1990,-88,-64,598,-34,8,139,0,0,0,0,0,0,0,0,0,0,0
0,0,-1988,-78,-80,597,-34,7,133,0,0,0,0,0,0,0,0,0,0,0
0,0,-1990,-84,-76,598,-33,6,130,0,0,0,0,0,0,0,0,0,0,0
0,0,-1998,-78,-82,598,-36,7,120,0,0,0,0,0,0,0,0,0,0,0
0,0,-1990,-85,-89,597,-34,6,114,0,0,0,0,0,0,0,0,0,0,0
0,0,-1990,-81,-77,598,-34,6,131,0,0,0,0,0,0,0,0,0,0,0
0,0,-1993,-85,-83,597,-35,6,116,0,0,0,0,0,0,0,0,0,0,0
0,0,-1993,-84,-81,598,-34,7,122,0,0,0,0,0,0,0,0,0,0,0
0,0,-1989,-79,-74,597,-33,5,136,0,0,0,0,0,0,0,0,0,0,0
0,0,-1987,-88,-82,596,-33,6,121,0,0,0,0,0,0,0,0,0,0,0
0,0,-1995,-90,-86,597,-34,6,107,0,0,0,0,0,0,0,0,0,0,0
0,0,-1997,-84,-75,597,-34,7,123,0,0,0,0,0,0,0,0,0,0,0
0,0,-1994,-93,-86,598,-32,7,109,0,0,0,0,0,0,0,0,0,0,0
0,0,-1987,-91,-76,598,-34,8,127,0,0,0,0,0,0,0,0,0,0,0
0,0,-1992,-91,-71,597,-35,6,123,0,0,0,0,0,0,0,0,0,0,0
0,0,-1993,-85,-75,598,-33,8,129,0,0,0,0,0,0,0,0,0,0,0
0,0,-1984,-78,-71,596,-34,6,144,0,0,0,0,0,0,0,0,0,0,0
0,0,-1982,-86,-75,596,-34,7,135,0,0,0,0,0,0,0,0,0,0,0
0,0,-1982,-86,-77,597,-32,7,136,0,0,0,0,0,0,0,0,0,0,0
0,0,-1992,-82,-75,597,-35,5,127,0,0,0,0,0,0,0,0,0,0,0
0,0,-1995,-86,-76,598,-35,7,122,0,0,0,0,0,0,0,0,0,0,0
0,0,-1987,-87,-80,598,-33,6,126,0,0,0,0,0,0,0,0,0,0,0
0,0,-1997,-86,-74,598,-35,8,123,0,0,0,0,0,0,0,0,0,0,0
0,0,-1985,-88,-69,598,-33,8,140,0,0,0,0,0,0,0,0,0,0,0
0,0,-1990,-90,-61,598,-34,5,137,0,0,0,0,0,0,0,0,0,0,0
0,0,-1991,-92,-74,598,-34,5,121,0,0,0,0,0,0,0,0,0,0,0
0,0,-1990,-90,-79,598,-33,7,122,0,0,0,0,0,0,0,0,0,0,0
0,0,-1986,-88,-72,598,-34,6,133,0,0,0,0,0,0,0,0,0,0,0
0,0,-1991,-83,-77,596,-33,9,130,0,0,0,0,0,0,0,0,0,0,0
0,0,-1991,-81,-81,598,-33,7,128,0,0,0,0,0,0,0,0,0,0,0
0,0,-1989,-85,-79,598,-33,7,128,0,0,0,0,0,0,0,0,0,0,0
0,0,-1994,-85,-83,598,-35,8,118,0,0,0,0,0,0,0,0,0,0,0
0,0,-1996,-81,-88,598,-35,7,114,0,0,0,0,0,0,0,0,0,0,0
0,0,-1998,-83,-79,598,-36,7,118,0,0,0,0,0,0,0,0,0,0,0
0,0,-1992,-87,-86,597,-33,6,114,0,0,0,0,0,0,0,0,0,0,0
0,0,-1977,-94,-80,598,-34,6,128,0,0,0,0,0,0,0,0,0,0,0
0,0,-1984,-86,-81,597,-34,5,126,0,0,0,0,0,0,0,0,0,0,0
0,0,-1988,-81,-80,596,-35,6,127,0,0,0,0,0,0,0,0,0,0,0
0,0,-1994,-90,-90,597,-33,6,105,0,0,0,0,0,0,0,0,0,0,0
0,0,-1991,-74,-89,596,-34,7,124,0,0,0,0,0,0,0,0,0,0,0
0,0,-1984,-83,-82,597,-34,7,130,0,0,0,0,0,0,0,0,0,0,0
0,0,-1987,-81,-80,597,-32,6,132,0,0,0,0,0,0,0,0,0,0,0
0,0,-1992,-82,-77,595,-36,6,123,0,0,0,0,0,0,0,0,0,0,0
0,0,-1999,-86,-74,596,-35,6,117,0,0,0,0,0,0,0,0,0,0,0
0,0,-1987,-85,-75,595,-34,8,131,0,0,0,0,0,0,0,0,0,0,0
0,0,-1985,-87,-80,596,-34,7,126,0,0,0,0,0,0,0,0,0,0,0
0,0,-1984,-87,-84,598,-34,7,125,0,0,0,0,0,0,0,0,0,0,0
0,0,-1993,-84,-89,597,-34,7,113,0,0,0,0,0,0,0,0,0,0,0
0,0,-1986,-88,-80,598,-32,8,129,0,0,0,0,0,0,0,0,0,0,0
0,0,-1982,-79,-87,598,-33,8,134,0,0,0,0,0,0,0,0,0,0,0
0,0,-1989,-85,-93,596,-35,7,110,0,0,0,0,0,0,0,0,0,0,0
0,0,-1989,-86,-78,597,-33,6,126,0,0,0,0,0,0,0,0,0,0,0
0,0,-1992,-97,-78,598,-34,7,113,0,0,0,0,0,0,0,0,0,0,0
0,0,-1995,-85,-66,597,-33,6,133,0,0,0,0,0,0,0,0,0,0,0
0,0,-1985,-88,-65,598,-34,7,142,0,0,0,0,0,0,0,0,0,0,0
0,0,-1993,-90,-80,598,-34,6,116,0,0,0,0,0,0,0,0,0,0,0
0,0,-1987,-88,-79,598,-35,8,126,0,0,0,0,0,0,0,0,0,0,0
0,0,-1986,-94,-77,596,-34,7,121,0,0,0,0,0,0,0,0,0,0,0
0,0,-1988,-83,-79,598,-34,6,129,0,0,0,0,0,0,0,0,0,0,0
0,0,-1989,-85,-83,597,-33,6,122,0,0,0,0,0,0,0,0,0,0,0
0,0,-1995,-86,-84,597,-35,7,113,0,0,0,0,0,0,0,0,0,0,0
0,0,-1991,-92,-83,597,-35,8,113,0,0,0,0,0,0,0,0,0,0,0
0,0,-1988,-89,-75,598,-35,6,126,0,0,0,0,0,0,0,0,0,0,0
0,0,-1990,-86,-79,595,-33,6,122,0,0,0,0,0,0,0,0,0,0,0
0,0,-1990,-91,-75,598,-35,6,122,0,0,0,0,0,0,0,0,0,0,0
0,0,-1987,-86,-79,598,-34,5,126,0,0,0,0,0,0,0,0,0,0,0
0,0,-1991,-86,-78,597,-34,5,122,0,0,0,0,0,0,0,0,0,0,0
0,0,-1985,-88,-75,596,-34,6,129,0,0,0,0,0,0,0,0,0,0,0
0,0,-1995,-85,-75,597,-33,5,123,0,0,0,0,0,0,0,0,0,0,0
0,0,-1987,-84,-70,598,-34,7,139,0,0,0,0,0,0,0,0,0,0,0
0,0,-1984,-83,-87,596,-33,7,125,0,0,0,0,0,0,0,0,0,0,0
0,0,-1987,-88,-84,597,-34,6,119,0,0,0,0,0,0,0,0,0,0,0
0,0,-1991,-80,-79,598,-34,6,129,0,0,0,0,0,0,0,0,0,0,0
0,0,-1988,-81,-75,596,-34,6,133,0,0,0,0,0,0,0,0,0,0,0
0,0,-1998,-91,-78,597,-34,7,112,0,0,0,0,0,0,0,0,0,0,0
0,0,-1991,-93,-69,597,-34,7,126,0,0,0,0,0,0,0,0,0,0,0
0,0,-1983,-87,-80,597,-34,7,129,0,0,0,0,0,0,0,0,0,0,0
0,0,-1983,-84,-84,597,-36,8,127,0,0,0,0,0,0,0,0,0,0,0
0,0,-1978,-91,-69,598,-33,6,142,0,0,0,0,0,0,0,0,0,0,0
0,0,-1994,-90,-65,597,-33,7,131,0,0,0,0,0,0,0,0,0,0,0
0,0,-1997,-85,-77,596,-35,8,119,0,0,0,0,0,0,0,0,0,0,0
0,0,-1991,-88,-78,599,-34,6,123,0,0,0,0,0,0,0,0,0,0,0
0,0,-1992,-82,-68,597,-34,7,137,0,0,0,0,0,0,0,0,0,0,0
0,0,-1991,-87,-88,598,-33,8,116,0,0,0,0,0,0,0,0,0,0,0
0,0,-1987,-91,-80,596,-35,7,119,0,0,0,0,0,0,0,0,0,0,0
0,0,-1987,-85,-71,599,-34,5,136,0,0,0,0,0,0,0,0,0,0,0
0,0,-1979,-87,-84,597,-36,7,127,0,0,0,0,0,0,0,0,0,0,0
0,0,-1992,-86,-84,597,-34,7,117,0,0,0,0,0,0,0,0,0,0,0
0,0,-1989,-82,-68,598,-33,7,142,0,0,0,0,0,0,0,0,0,0,0
0,0,-1989,-80,-81,597,-34,7,129,0,0,0,0,0,0,0,0,0,0,0
0,0,-1984,-89,-82,595,-34,8,123,0,0,0,0,0,0,0,0,0,0,0
0,0,-1988,-87,-74,597,-35,7,129,0,0,0,0,0,0,0,0,0,0,0
0,0,-1986,-92,-73,598,-34,6,128,0,0,0,0,0,0,0,0,0,0,0
0,0,-1990,-99,-71,598,-33,8,122,0,0,0,0,0,0,0,0,0,0,0
0,0,-1983,-86,-64,597,-34,7,146,0,0,0,0,0,0,0,0,0,0,0
0,0,-1991,-86,-76,598,-32,6,128,0,0,0,0,0,0,0,0,0,0,0
0,0,-1993,-81,-73,597,-35,7,131,0,0,0,0,0,0,0,0,0,0,0
0,0,-1986,-85,-76,596,-33,8,133,0,0,0,0,0,0,0,0,0,0,0
0,0,-1998,-92,-81,597,-33,6,108,0,0,0,0,0,0,0,0,0,0,0
0,0,-1987,-90,-71,597,-33,8,133,0,0,0,0,0,0,0,0,0,0,0
0,0,-1986,-82,-82,598,-35,6,128,0,0,0,0,0,0,0,0,0,0,0
0,0,-1990,-85,-85,597,-35,6,117,0,0,0,0,0,0,0,0,0,0,0
0,0,-1992,-82,-83,599,-34,6,123,0,0,0,0,0,0,0,0,0,0,0
0,0,-1990,-90,-73,596,-34,6,124,0,0,0,0,0,0,0,0,0,0,0
0,0,-1987,-90,-90,596,-36,7,109,0,0,0,0,0,0,0,0,0,0,0
0,0,-1978,-81,-87,596,-36,5,128,0,0,0,0,0,0,0,0,0,0,0
0,0,-1989,-86,-77,596,-33,5,125,0,0,0,0,0,0,0,0,0,0,0
0,0,-1993,-78,-86,596,-35,8,121,0,0,0,0,0,0,0,0,0,0,0
0,0,-1988,-83,-88,598,-36,6,118,0,0,0,0,0,0,0,0,0,0,0
0,0,-1979,-90,-83,598,-34,8,129,0,0,0,0,0,0,0,0,0,0,0
0,0,-1987,-91,-78,597,-35,7,122,0,0,0,0,0,0,0,0,0,0,0
0,0,-1994,-83,-70,597,-34,8,133,0,0,0,0,0,0,0,0,0,0,0
0,0,-1989,-88,-85,597,-35,8,117,0,0,0,0,0,0,0,0,0,0,0
0,0,-1990,-84,-79,598,-35,7,126,0,0,0,0,0,0,0,0,0,0,0
0,0,-1991,-91,-76,597,-34,6,120,0,0,0,0,0,0,0,0,0,0,0
0,0,-1989,-86,-73,598,-35,5,129,0,0,0,0,0,0,0,0,0,0,0
0,0,-1988,-89,-81,599,-32,6,124,0,0,0,0,0,0,0,0,0,0,0
0,0,-1979,-88,-84,597,-33,5,127,0,0,0,0,0,0,0,0,0,0,0
0,0,-1987,-89,-75,598,-33,6,129,0,0,0,0,0,0,0,0,0,0,0
0,0,-1995,-87,-80,598,-34,7,118,0,0,0,0,0,0,0,0,0,0,0
0,0,-1991,-85,-72,598,-32,9,136,0,0,0,0,0,0,0,0,0,0,0
0,0,-1989,-88,-74,598,-34,7,129,0,0,0,0,0,0,0,0,0,0,0
0,0,-1990,-87,-84,598,-34,7,119,0,0,0,0,0,0,0,0,0,0,0
0,0,-1992,-88,-73,597,-34,5,124,0,0,0,0,0,0,0,0,0,0,0
0,0,-1989,-89,-84,598,-33,8,120,0,0,0,0,0,0,0,0,0,0,0
0,0,-1989,-83,-73,598,-34,7,135,0,0,0,0,0,0,0,0,0,0,0
0,0,-1991,-88,-79,597,-33,7,122,0,0,0,0,0,0,0,0,0,0,0
0,0,-1994,-84,-77,598,-35,7,124,0,0,0,0,0,0,0,0,0,0,0
0,0,-1992,-88,-77,596,-35,8,121,0,0,0,0,0,0,0,0,0,0,0
0,0,-1989,-83,-74,598,-34,7,134,0,0,0,0,0,0,0,0,0,0,0
0,0,-1988,-79,-81,596,-34,5,128,0,0,0,0,0,0,0,0,0,0,0
0,0,-1989,-78,-83,598,-34,7,130,0,0,0,0,0,0,0,0,0,0,0
0,0,-1984,-86,-78,597,-34,8,132,0,0,0,0,0,0,0,0,0,0,0
0,0,-1989,-88,-82,596,-33,8,121,0,0,0,0,0,0,0,0,0,0,0
0,0,-1985,-90,-65,599,-32,6,142,0,0,0,0,0,0,0,0,0,0,0
0,0,-1991,-85,-73,597,-33,6,130,0,0,0,0,0,0,0,0,0,0,0
0,0,-1992,-85,-70,598,-34,5,131,0,0,0,0,0,0,0,0,0,0,0
0,0,-1983,-86,-81,598,-35,7,129,0,0,0,0,0,0,0,0,0,0,0
0,0,-1990,-83,-73,598,-35,6,132,0,0,0,0,0,0,0,0,0,0,0
0,0,-1989,-87,-83,597,-35,8,120,0,0,0,0,0,0,0,0,0,0,0
0,0,-1989,-84,-80,598,-35,9,128,0,0,0,0,0,0,0,0,0,0,0
0,0,-1990,-83,-84,596,-36,7,119,0,0,0,0,0,0,0,0,0,0,0
0,0,-1987,-87,-84,598,-34,7,122,0,0,0,0,0,0,0,0,0,0,0
0,0,-1984,-91,-81,598,-34,7,124,0,0,0,0,0,0,0,0,0,0,0
0,0,-1987,-90,-79,597,-35,7,122,0,0,0,0,0,0,0,0,0,0,0
0,0,-1991,-91,-78,596,-33,7,119,0,0,0,0,0,0,0,0,0,0,0
0,0,-1982,-85,-81,596,-34,7,130,0,0,0,0,0,0,0,0,0,0,0
0,0,-1991,-82,-66,599,-33,7,143,0,0,0,0,0,0,0,0,0,0,0
0,0,-1986,-88,-60,597,-35,9,146,0,0,0,0,0,0,0,0,0,0,0
0,0,-1983,-86,-83,597,-34,6,126,0,0,0,0,0,0,0,0,0,0,0
0,0,-1979,-79,-87,597,-36,7,132,0,0,0,0,0,0,0,0,0,0,0
0,0,-1983,-87,-73,597,-34,5,134,0,0,0,0,0,0,0,0,0,0,0
0,0,-1984,-86,-82,598,-33,6,128,0,0,0,0,0,0,0,0,0,0,0
0,0,-1982,-90,-70,598,-34,8,139,0,0,0,0,0,0,0,0,0,0,0
0,0,-1985,-78,-79,599,-33,8,141,0,0,0,0,0,0,0,0,0,0,0
0,0,-1990,-91,-83,601,-34,7,119,0,0,0,0,0,0,0,0,0,0,0
0,0,-1990,-86,-78,595,-35,7,122,0,0,0,0,0,0,0,0,0,0,0
0,0,-1987,-89,-74,597,-35,5,126,0,0,0,0,0,0,0,0,0,0,0
0,0,-1991,-89,-68,598,-33,5,131,0,0,0,0,0,0,0,0,0,0,0
0,0,-1994,-83,-72,598,-35,6,129,0,0,0,0,0,0,0,0,0,0,0
0,0,-1990,-88,-81,597,-35,6,118,0,0,0,0,0,0,0,0,0,0,0
0,0,-1985,-83,-84,598,-32,9,132,0,0,0,0,0,0,0,0,0,0,0
0,0,-1989,-92,-79,598,-34,6,119,0,0,0,0,0,0,0,0,0,0,0
0,0,-1998,-89,-65,598,-33,7,129,0,0,0,0,0,0,0,0,0,0,0
0,0,-1995,-85,-70,595,-33,5,126,0,0,0,0,0,0,0,0,0,0,0
0,0,-1991,-80,-66,598,-34,8,144,0,0,0,0,0,0,0,0,0,0,0
0,0,-1986,-91,-67,598,-34,6,135,0,0,0,0,0,0,0,0,0,0,0
0,0,-1993,-89,-74,598,-34,6,123,0,0,0,0,0,0,0,0,0,0,0
0,0,-1987,-87,-81,597,-33,7,125,0,0,0,0,0,0,0,0,0,0,0
0,0,-1991,-84,-75,597,-33,6,129,0,0,0,0,0,0,0,0,0,0,0
0,0,-1980,-85,-73,599,-34,7,143,0,0,0,0,0,0,0,0,0,0,0
0,0,-1990,-81,-87,597,-34,7,121,0,0,0,0,0,0,0,0,0,0,0
0,0,-1989,-88,-75,596,-34,7,126,0,0,0,0,0,0,0,0,0,0,0
0,0,-1989,-88,-78,597,-35,8,124,0,0,0,0,0,0,0,0,0,0,0
0,0,-1988,-93,-87,599,-33,8,115,0,0,0,0,0,0,0,0,0,0,0
0,0,-1996,-82,-82,598,-34,5,118,0,0,0,0,0,0,0,0,0,0,0
0,0,-1987,-93,-86,597,-34,8,114,0,0,0,0,0,0,0,0,0,0,0
0,0,-1994,-87,-88,597,-35,7,109,0,0,0,0,0,0,0,0,0,0,0
0,0,-1982,-81,-80,598,-33,8,139,0,0,0,0,0,0,0,0,0,0,0
0,0,-1984,-84,-75,599,-34,6,137,0,0,0,0,0,0,0,0,0,0,0
0,0,-1990,-86,-89,598,-35,6,113,0,0,0,0,0,0,0,0,0,0,0
0,0,-1988,-84,-89,597,-35,9,119,0,0,0,0,0,0,0,0,0,0,0
0,0,-1985,-97,-84,597,-34,7,113,0,0,0,0,0,0,0,0,0,0,0
0,0,-1990,-97,-75,598,-34,7,118,0,0,0,0,0,0,0,0,0,0,0
0,0,-1988,-83,-80,598,-33,7,130,0,0,0,0,0,0,0,0,0,0,0
0,0,-1990,-79,-75,596,-33,6,134,0,0,0,0,0,0,0,0,0,0,0
0,0,-1987,-84,-65,597,-34,8,144,0,0,0,0,0,0,0,0,0,0,0
0,0,-1988,-91,-67,598,-33,6,134,0,0,0,0,0,0,0,0,0,0,0
0,0,-1982,-86,-83,597,-33,5,127,0,0,0,0,0,0,0,0,0,0,0
0,0,-1992,-92,-78,598,-34,8,119,0,0,0,0,0,0,0,0,0,0,0
0,0,-1986,-89,-75,600,-33,8,134,0,0,0,0,0,0,0,0,0,0,0
0,0,-1996,-83,-65,597,-33,7,136,0,0,0,0,0,0,0,0,0,0,0
0,0,-1984,-75,-73,598,-33,7,149,0,0,0,0,0,0,0,0,0,0,0
0,0,-1993,-83,-76,599,-34,7,129,0,0,0,0,0,0,0,0,0,0,0
0,0,-1992,-86,-74,597,-35,6,125,0,0,0,0,0,0,0,0,0,0,0
0,0,-1992,-90,-70,597,-34,7,127,0,0,0,0,0,0,0,0,0,0,0
0,0,-1988,-86,-82,598,-34,6,123,0,0,0,0,0,0,0,0,0,0,0
0,0,-1988,-90,-91,597,-33,7,111,0,0,0,0,0,0,0,0,0,0,0
0,0,-1987,-91,-84,598,-34,8,119,0,0,0,0,0,0,0,0,0,0,0
0,0,-1987,-89,-77,598,-34,7,127,0,0,0,0,0,0,0,0,0,0,0
0,0,-1987,-86,-69,596,-33,6,136,0,0,0,0,0,0,0,0,0,0,0
0,0,-1990,-90,-77,597,-33,6,122,0,0,0,0,0,0,0,0,0,0,0
0,0,-1983,-85,-64,597,-33,7,148,0,0,0,0,0,0,0,0,0,0,0
0,0,-1987,-83,-73,597,-34,6,135,0,0,0,0,0,0,0,0,0,0,0
0,0,-1988,-91,-86,598,-35,8,115,0,0,0,0,0,0,0,0,0,0,0
0,0,-1996,-88,-83,598,-34,6,112,0,0,0,0,0,0,0,0,0,0,0
0,0,-1989,-89,-76,597,-34,7,125,0,0,0,0,0,0,0,0,0,0,0
0,0,-1989,-85,-70,598,-32,7,138,0,0,0,0,0,0,0,0,0,0,0
0,0,-1989,-83,-76,597,-36,7,129,0,0,0,0,0,0,0,0,0,0,0
0,0,-1997,-79,-76,597,-36,4,122,0,0,0,0,0,0,0,0,0,0,0
0,0,-1989,-86,-76,598,-35,6,127,0,0,0,0,0,0,0,0,0,0,0
0,0,-1986,-84,-78,597,-35,5,128,0,0,0,0,0,0,0,0,0,0,0
0,0,-1985,-72,-84,597,-35,6,136,0,0,0,0,0,0,0,0,0,0,0
0,0,-1993,-85,-82,596,-35,6,116,0,0,0,0,0,0,0,0,0,0,0
0,0,-1989,-90,-82,597,-36,6,115,0,0,0,0,0,0,0,0,0,0,0
0,0,-1995,-87,-76,598,-35,7,121,0,0,0,0,0,0,0,0,0,0,0
0,0,-1998,-95,-81,598,-34,7,106,0,0,0,0,0,0,0,0,0,0,0
0,0,-1987,-88,-85,597,-33,6,119,0,0,0,0,0,0,0,0,0,0,0
0,0,-1990,-94,-70,598,-34,8,127,0,0,0,0,0,0,0,0,0,0,0
0,0,-1993,-80,-79,598,-34,8,129,0,0,0,0,0,0,0,0,0,0,0
0,0,-1988,-86,-71,598,-34,7,135,0,0,0,0,0,0,0,0,0,0,0
0,0,-1991,-95,-74,598,-33,5,119,0,0,0,0,0,0,0,0,0,0,0
0,0,-1993,-93,-73,597,-34,5,118,0,0,0,0,0,0,0,0,0,0,0
0,0,-1989,-85,-76,598,-35,6,128,0,0,0,0,0,0,0,0,0,0,0
0,0,-1988,-84,-85,598,-35,7,122,0,0,0,0,0,0,0,0,0,0,0
0,0,-1990,-84,-71,598,-33,8,137,0,0,0,0,0,0,0,0,0,0,0
0,0,-1987,-82,-80,598,-35,7,130,0,0,0,0,0,0,0,0,0,0,0
0,0,-1983,-84,-71,596,-32,7,142,0,0,0,0,0,0,0,0,0,0,0
0,0,-1988,-85,-76,597,-34,6,129,0,0,0,0,0,0,0,0,0,0,0
0,0,-1984,-75,-71,597,-35,8,149,0,0,0,0,0,0,0,0,0,0,0
0,0,-1987,-80,-71,597,-33,5,140,0,0,0,0,0,0,0,0,0,0,0
0,0,-1987,-83,-74,597,-33,6,135,0,0,0,0,0,0,0,0,0,0,0
0,0,-1990,-86,-88,597,-34,7,115,0,0,0,0,0,0,0,0,0,0,0
0,0,-1991,-93,-87,597,-34,6,107,0,0,0,0,0,0,0,0,0,0,0
0,0,-1987,-89,-72,598,-34,7,132,0,0,0,0,0,0,0,0,0,0,0
0,0,-1989,-90,-79,597,-34,6,120,0,0,0,0,0,0,0,0,0,0,0
0,0,-1990,-83,-73,596,-34,6,131,0,0,0,0,0,0,0,0,0,0,0
0,0,-1991,-77,-79,597,-34,7,132,0,0,0,0,0,0,0,0,0,0,0
0,0,-1991,-82,-76,599,-33,7,133,0,0,0,0,0,0,0,0,0,0,0
0,0,-1990,-91,-77,596,-33,8,122,0,0,0,0,0,0,0,0,0,0,0
0,0,-1981,-87,-78,597,-34,8,134,0,0,0,0,0,0,0,0,0,0,0
0,0,-1987,-81,-83,598,-34,7,129,0,0,0,0,0,0,0,0,0,0,0
0,0,-1989,-89,-77,596,-34,6,122,0,0,0,0,0,0,0,0,0,0,0
0,0,-1989,-85,-75,598,-32,7,133,0,0,0,0,0,0,0,0,0,0,0
0,0,-1992,-86,-75,598,-32,5,127,0,0,0,0,0,0,0,0,0,0,0
0,0,-1990,-83,-85,599,-33,7,124,0,0,0,0,0,0,0,0,0,0,0
0,0,-2000,-87,-84,598,-33,7,110,0,0,0,0,0,0,0,0,0,0,0
0,0,-1989,-81,-76,598,-35,8,134,0,0,0,0,0,0,0,0,0,0,0
0,0,-1990,-86,-77,595,-32,7,126,0,0,0,0,0,0,0,0,0,0,0
0,0,-1985,-85,-88,597,-35,9,122,0,0,0,0,0,0,0,0,0,0,0
0,0,-1989,-90,-85,598,-32,7,118,0,0,0,0,0,0,0,0,0,0,0
0,0,-1982,-84,-80,598,-34,6,133,0,0,0,0,0,0,0,0,0,0,0
0,0,-1981,-94,-75,597,-32,7,131,0,0,0,0,0,0,0,0,0,0,0
0,0,-1990,-90,-80,597,-34,6,118,0,0,0,0,0,0,0,0,0,0,0
0,0,-1978,-88,-78,596,-35,6,132,0,0,0,0,0,0,0,0,0,0,0
0,0,-1987,-86,-75,597,-35,7,130,0,0,0,0,0,0,0,0,0,0,0
0,0,-1992,-84,-82,598,-34,7,122,0,0,0,0,0,0,0,0,0,0,0
0,0,-1980,-83,-69,597,-33,6,147,0,0,0,0,0,0,0,0,0,0,0
0,0,-1992,-88,-82,597,-34,7,117,0,0,0,0,0,0,0,0,0,0,0
0,0,-1994,-85,-81,599,-34,8,122,0,0,0,0,0,0,0,0,0,0,0
0,0,-1988,-82,-83,598,-33,6,127,0,0,0,0,0,0,0,0,0,0,0
0,0,-1989,-90,-70,597,-34,7,130,0,0,0,0,0,0,0,0,0,0,0
0,0,-1992,-91,-74,598,-34,7,123,0,0,0,0,0,0,0,0,0,0,0
0,0,-1990,-88,-75,598,-33,6,127,0,0,0,0,0,0,0,0,0,0,0
0,0,-1985,-85,-77,598,-33,6,133,0,0,0,0,0,0,0,0,0,0,0
0,0,-1990,-89,-70,598,-34,5,129,0,0,0,0,0,0,0,0,0,0,0
0,0,-1985,-79,-74,598,-33,6,142,0,0,0,0,0,0,0,0,0,0,0
0,0,-1993,-88,-77,597,-32,8,124,0,0,0,0,0,0,0,0,0,0,0
0,0,-1982,-83,-71,596,-33,9,145,0,0,0,0,0,0,0,0,0,0,0
0,0,-1985,-78,-74,598,-34,6,142,0,0,0,0,0,0,0,0,0,0,0
0,0,-1991,-87,-78,599,-33,6,125,0,0,0,0,0,0,0,0,0,0,0
0,0,-1986,-90,-78,598,-32,6,127,0,0,0,0,0,0,0,0,0,0,0
0,0,-1990,-83,-81,598,-33,7,127,0,0,0,0,0,0,0,0,0,0,0
0,0,-1989,-85,-82,598,-35,6,122,0,0,0,0,0,0,0,0,0,0,0
0,0,-1994,-88,-83,598,-34,7,115,0,0,0,0,0,0,0,0,0,0,0
0,0,-1995,-84,-89,598,-33,6,112,0,0,0,0,0,0,0,0,0,0,0
0,0,-1999,-85,-79,598,-33,6,117,0,0,0,0,0,0,0,0,0,0,0
0,0,-1989,-80,-85,599,-33,6,127,0,0,0,0,0,0,0,0,0,0,0
0,0,-1984,-87,-81,600,-34,5,128,0,0,0,0,0,0,0,0,0,0,0
0,0,-1986,-92,-79,598,-33,6,123,0,0,0,0,0,0,0,0,0,0,0
0,0,-1984,-90,-72,598,-33,7,135,0,0,0,0,0,0,0,0,0,0,0
0,0,-1986,-85,-80,597,-34,6,127,0,0,0,0,0,0,0,0,0,0,0
0,0,-1989,-88,-88,599,-33,6,116,0,0,0,0,0,0,0,0,0,0,0
0,0,-1987,-87,-85,596,-35,7,118,0,0,0,0,0,0,0,0,0,0,0
0,0,-1988,-84,-77,597,-34,7,130,0,0,0,0,0,0,0,0,0,0,0
0,0,-1986,-89,-79,598,-34,6,125,0,0,0,0,0,0,0,0,0,0,0
0,0,-1989,-89,-80,597,-33,6,121,0,0,0,0,0,0,0,0,0,0,0
0,0,-1993,-86,-77,597,-33,7,124,0,0,0,0,0,0,0,0,0,0,0
0,0,-1985,-82,-79,597,-32,7,135,0,0,0,0,0,0,0,0,0,0,0
0,0,-1994,-85,-71,598,-34,7,130,0,0,0,0,0,0,0,0,0,0,0
0,0,-1996,-84,-73,598,-33,7,128,0,0,0,0,0,0,0,0,0,0,0
0,0,-1997,-89,-77,597,-33,6,116,0,0,0,0,0,0,0,0,0,0,0
0,0,-1990,-85,-71,596,-34,6,131,0,0,0,0,0,0,0,0,0,0,0
0,0,-1992,-87,-84,598,-35,7,116,0,0,0,0,0,0,0,0,0,0,0
0,0,-1993,-82,-74,596,-34,6,128,0,0,0,0,0,0,0,0,0,0,0
0,0,-1991,-83,-84,597,-35,6,119,0,0,0,0,0,0,0,0,0,0,0
0,0,-1990,-87,-72,599,-34,5,130,0,0,0,0,0,0,0,0,0,0,0
0,0,-1989,-83,-78,597,-34,7,129,0,0,0,0,0,0,0,0,0,0,0
0,0,-1989,-84,-76,598,-34,6,130,0,0,0,0,0,0,0,0,0,0,0
0,0,-1986,-84,-87,597,-34,7,122,0,0,0,0,0,0,0,0,0,0,0
0,0,-1980,-90,-76,596,-34,7,132,0,0,0,0,0,0,0,0,0,0,0
0,0,-1984,-86,-81,599,-35,7,129,0,0,0,0,0,0,0,0,0,0,0
0,0,-1987,-92,-85,598,-32,6,117,0,0,0,0,0,0,0,0,0,0,0
0,0,-1988,-87,-78,597,-34,8,127,0,0,0,0,0,0,0,0,0,0,0
0,0,-1988,-89,-83,598,-34,7,120,0,0,0,0,0,0,0,0,0,0,0
0,0,-1992,-86,-86,596,-33,7,115,0,0,0,0,0,0,0,0,0,0,0
0,0,-1988,-83,-85,598,-33,6,124,0,0,0,0,0,0,0,0,0,0,0
0,0,-1997,-80,-74,597,-34,6,127,0,0,0,0,0,0,0,0,0,0,0
0,0,-1992,-89,-75,595,-34,6,120,0,0,0,0,0,0,0,0,0,0,0
0,0,-1987,-84,-68,598,-33,7,142,0,0,0,0,0,0,0,0,0,0,0
0,0,-1987,-85,-74,598,-35,7,133,0,0,0,0,0,0,0,0,0,0,0
0,0,-1989,-79,-71,598,-36,6,138,0,0,0,0,0,0,0,0,0,0,0
0,0,-1988,-90,-79,597,-35,7,121,0,0,0,0,0,0,0,0,0,0,0
0,0,-1992,-82,-82,597,-35,7,122,0,0,0,0,0,0,0,0,0,0,0
0,0,-1985,-82,-78,597,-35,8,134,0,0,0,0,0,0,0,0,0,0,0
0,0,-1985,-84,-69,599,-34,8,144,0,0,0,0,0,0,0,0,0,0,0
0,0,-1984,-86,-81,597,-34,7,128,0,0,0,0,0,0,0,0,0,0,0
0,0,-1986,-93,-87,599,-34,6,114,0,0,0,0,0,0,0,0,0,0,0
0,0,-1991,-90,-80,597,-35,6,116,0,0,0,0,0,0,0,0,0,0,0
0,0,-1991,-87,-88,598,-33,5,113,0,0,0,0,0,0,0,0,0,0,0
0,0,-1986,-92,-83,597,-34,7,118,0,0,0,0,0,0,0,0,0,0,0
0,0,-1990,-88,-79,597,-35,6,120,0,0,0,0,0,0,0,0,0,0,0
0,0,-1991,-86,-75,598,-33,5,127,0,0,0,0,0,0,0,0,0,0,0
0,0,-1988,-93,-86,599,-35,8,114,0,0,0,0,0,0,0,0,0,0,0
0,0,-1992,-88,-78,598,-34,6,121,0,0,0,0,0,0,0,0,0,0,0
0,0,-1991,-88,-77,597,-34,6,122,0,0,0,0,0,0,0,0,0,0,0
0,0,-1988,-84,-86,598,-35,6,120,0,0,0,0,0,0,0,0,0,0,0
0,0,-1988,-83,-82,597,-34,8,127,0,0,0,0,0,0,0,0,0,0,0
0,0,-1991,-85,-85,598,-33,7,120,0,0,0,0,0,0,0,0,0,0,0
0,0,-1990,-89,-75,598,-35,7,125,0,0,0,0,0,0,0,0,0,0,0
0,0,-1988,-89,-75,597,-33,6,127,0,0,0,0,0,0,0,0,0,0,0
0,0,-1990,-84,-76,598,-36,6,127,0,0,0,0,0,0,0,0,0,0,0
0,0,-1996,-88,-82,597,-33,5,112,0,0,0,0,0,0,0,0,0,0,0
0,0,-1998,-89,-67,598,-35,6,124,0,0,0,0,0,0,0,0,0,0,0
0,0,-1993,-91,-75,597,-33,5,119,0,0,0,0,0,0,0,0,0,0,0
0,0,-1991,-89,-81,597,-33,7,119,0,0,0,0,0,0,0,0,0,0,0
0,0,-1995,-84,-69,597,-33,6,131,0,0,0,0,0,0,0,0,0,0,0
0,0,-1991,-87,-68,597,-34,5,131,0,0,0,0,0,0,0,0,0,0,0
0,0,-1992,-87,-78,598,-34,7,123,0,0,0,0,0,0,0,0,0,0,0
0,0,-1989,-87,-62,598,-33,6,142,0,0,0,0,0,0,0,0,0,0,0
0,0,-1986,-81,-79,597,-34,8,134,0,0,0,0,0,0,0,0,0,0,0
0,0,-1987,-87,-74,596,-33,7,131,0,0,0,0,0,0,0,0,0,0,0
0,0,-1988,-84,-67,598,-34,7,141,0,0,0,0,0,0,0,0,0,0,0
0,0,-1992,-88,-73,598,-34,6,126,0,0,0,0,0,0,0,0,0,0,0
0,0,-1988,-87,-82,597,-34,6,121,0,0,0,0,0,0,0,0,0,0,0
0,0,-1985,-87,-87,597,-35,7,119,0,0,0,0,0,0,0,0,0,0,0
0,0,-1981,-91,-74,598,-34,7,134,0,0,0,0,0,0,0,0,0,0,0
0,0,-1988,-81,-69,597,-34,8,142,0,0,0,0,0,0,0,0,0,0,0
0,0,-1991,-81,-78,598,-34,4,127,0,0,0,0,0,0,0,0,0,0,0
0,0,-1992,-88,-85,597,-34,6,113,0,0,0,0,0,0,0,0,0,0,0
0,0,-1984,-85,-79,597,-34,7,131,0,0,0,0,0,0,0,0,0,0,0
0,0,-1988,-84,-85,597,-34,7,122,0,0,0,0,0,0,0,0,0,0,0
0,0,-1991,-84,-75,598,-34,9,132,0,0,0,0,0,0,0,0,0,0,0
0,0,-1983,-83,-77,599,-34,6,137,0,0,0,0,0,0,0,0,0,0,0
0,0,-1982,-91,-86,598,-35,7,120,0,0,0,0,0,0,0,0,0,0,0
0,0,-1986,-88,-76,598,-34,8,131,0,0,0,0,0,0,0,0,0,0,0
0,0,-1988,-91,-81,598,-33,7,121,0,0,0,0,0,0,0,0,0,0,0
0,0,-1987,-80,-82,598,-34,7,131,0,0,0,0,0,0,0,0,0,0,0
0,0,-1985,-79,-73,599,-32,7,146,0,0,0,0,0,0,0,0,0,0,0
0,0,-1987,-81,-76,598,-35,5,133,0,0,0,0,0,0,0,0,0,0,0
0,0,-1991,-80,-88,598,-34,7,121,0,0,0,0,0,0,0,0,0,0,0
0,0,-1987,-83,-73,597,-34,8,137,0,0,0,0,0,0,0,0,0,0,0
0,0,-1986,-75,-73,598,-34,6,145,0,0,0,0,0,0,0,0,0,0,0
0,0,-1990,-86,-69,598,-35,6,133,0,0,0,0,0,0,0,0,0,0,0
0,0,-1988,-78,-67,599,-33,6,148,0,0,0,0,0,0,0,0,0,0,0
0,0,-1989,-91,-81,598,-34,9,121,0,0,0,0,0,0,0,0,0,0,0
0,0,-1998,-90,-89,598,-35,6,101,0,0,0,0,0,0,0,0,0,0,0
0,0,-1981,-86,-84,596,-35,6,125,0,0,0,0,0,0,0,0,0,0,0
0,0,-1990,-87,-85,596,-35,5,113,0,0,0,0,0,0,0,0,0,0,0
0,0,-1989,-81,-77,599,-35,6,132,0,0,0,0,0,0,0,0,0,0,0
0,0,-1984,-85,-70,597,-34,8,141,0,0,0,0,0,0,0,0,0,0,0
0,0,-1987,-90,-79,597,-35,8,123,0,0,0,0,0,0,0,0,0,0,0
0,0,-1982,-88,-74,599,-34,8,138,0,0,0,0,0,0,0,0,0,0,0
0,0,-1985,-93,-82,597,-33,9,122,0,0,0,0,0,0,0,0,0,0,0
0,0,-1986,-79,-84,599,-33,7,133,0,0,0,0,0,0,0,0,0,0,0
0,0,-1991,-80,-79,597,-32,7,131,0,0,0,0,0,0,0,0,0,0,0
0,0,-1992,-88,-85,599,-35,8,116,0,0,0,0,0,0,0,0,0,0,0
0,0,-1992,-83,-70,597,-35,6,132,0,0,0,0,0,0,0,0,0,0,0
0,0,-1985,-89,-69,598,-35,6,135,0,0,0,0,0,0,0,0,0,0,0
0,0,-1988,-91,-72,597,-34,7,128,0,0,0,0,0,0,0,0,0,0,0
0,0,-1992,-95,-72,598,-34,8,122,0,0,0,0,0,0,0,0,0,0,0
0,0,-1990,-86,-84,596,-34,7,118,0,0,0,0,0,0,0,0,0,0,0
0,0,-1993,-90,-82,598,-34,7,115,0,0,0,0,0,0,0,0,0,0,0
0,0,-1987,-87,-90,599,-34,7,117,0,0,0,0,0,0,0,0,0,0,0
0,0,-1992,-88,-86,599,-35,6,113,0,0,0,0,0,0,0,0,0,0,0
0,0,-1994,-83,-81,596,-35,7,119,0,0,0,0,0,0,0,0,0,0,0
0,0,-1990,-92,-78,597,-34,6,118,0,0,0,0,0,0,0,0,0,0,0
0,0,-1993,-86,-79,598,-35,6,120,0,0,0,0,0,0,0,0,0,0,0
0,0,-1991,-87,-76,597,-33,6,125,0,0,0,0,0,0,0,0,0,0,0
0,0,-1990,-92,-71,599,-35,6,126,0,0,0,0,0,0,0,0,0,0,0
0,0,-1989,-89,-74,597,-34,8,128,0,0,0,0,0,0,0,0,0,0,0
0,0,-1995,-88,-72,598,-33,8,127,0,0,0,0,0,0,0,0,0,0,0
0,0,-1991,-89,-75,598,-33,6,125,0,0,0,0,0,0,0,0,0,0,0
0,0,-1987,-84,-75,597,-33,6,133,0,0,0,0,0,0,0,0,0,0,0
0,0,-1989,-84,-74,598,-34,6,132,0,0,0,0,0,0,0,0,0,0,0
0,0,-1995,-88,-74,599,-33,7,125,0,0,0,0,0,0,0,0,0,0,0
0,0,-1987,-89,-78,598,-35,7,125,0,0,0,0,0,0,0,0,0,0,0
0,0,-1992,-85,-70,597,-33,6,132,0,0,0,0,0,0,0,0,0,0,0
0,0,-1988,-87,-66,597,-34,8,139,0,0,0,0,0,0,0,0,0,0,0
0,0,-1992,-85,-71,597,-34,7,131,0,0,0,0,0,0,0,0,0,0,0
0,0,-1986,-93,-66,596,-34,8,134,0,0,0,0,0,0,0,0,0,0,0
0,0,-1992,-87,-74,597,-35,6,124,0,0,0,0,0,0,0,0,0,0,0
0,0,-1989,-92,-77,598,-35,8,122,0,0,0,0,0,0,0,0,0,0,0
0,0,-1988,-90,-76,598,-34,8,127,0,0,0,0,0,0,0,0,0,0,0
0,0,-1988,-82,-75,597,-34,8,135,0,0,0,0,0,0,0,0,0,0,0
0,0,-1984,-87,-79,597,-33,5,128,0,0,0,0,0,0,0,0,0,0,0
0,0,-1987,-91,-81,598,-34,7,121,0,0,0,0,0,0,0,0,0,0,0
0,0,-1986,-89,-70,600,-34,6,136,0,0,0,0,0,0,0,0,0,0,0
0,0,-1991,-81,-81,597,-33,6,126,0,0,0,0,0,0,0,0,0,0,0
0,0,-1988,-90,-80,597,-34,6,120,0,0,0,0,0,0,0,0,0,0,0
0,0,-1993,-90,-77,598,-34,7,120,0,0,0,0,0,0,0,0,0,0,0
0,0,-1985,-90,-65,599,-33,6,141,0,0,0,0,0,0,0,0,0,0,0
0,0,-1989,-91,-81,597,-34,8,119,0,0,0,0,0,0,0,0,0,0,0
0,0,-1997,-86,-82,597,-35,7,113,0,0,0,0,0,0,0,0,0,0,0
0,0,-1993,-88,-72,598,-35,5,124,0,0,0,0,0,0,0,0,0,0,0
0,0,-1994,-85,-80,597,-35,6,118,0,0,0,0,0,0,0,0,0,0,0
0,0,-1984,-87,-84,598,-34,7,125,0,0,0,0,0,0,0,0,0,0,0
0,0,-1984,-88,-84,598,-35,6,122,0,0,0,0,0,0,0,0,0,0,0
0,0,-1989,-83,-85,597,-32,9,126,0,0,0,0,0,0,0,0,0,0,0
0,0,-1987,-77,-82,595,-33,8,133,0,0,0,0,0,0,0,0,0,0,0
0,0,-1987,-86,-73,596,-35,7,131,0,0,0,0,0,0,0,0,0,0,0
0,0,-1988,-99,-83,598,-34,6,109,0,0,0,0,0,0,0,0,0,0,0
0,0,-1987,-94,-75,599,-36,7,123,0,0,0,0,0,0,0,0,0,0,0
0,0,-1988,-80,-75,597,-33,8,138,0,0,0,0,0,0,0,0,0,0,0
0,0,-1983,-84,-77,596,-33,6,134,0,0,0,0,0,0,0,0,0,0,0
0,0,-1991,-90,-77,598,-34,8,123,0,0,0,0,0,0,0,0,0,0,0
0,0,-1996,-81,-73,597,-34,6,128,0,0,0,0,0,0,0,0,0,0,0
0,0,-1991,-94,-71,597,-34,6,122,0,0,0,0,0,0,0,0,0,0,0
0,0,-1984,-88,-84,597,-35,5,120,0,0,0,0,0,0,0,0,0,0,0
0,0,-1992,-84,-74,597,-34,8,130,0,0,0,0,0,0,0,0,0,0,0
0,0,-1985,-92,-76,599,-35,6,126,0,0,0,0,0,0,0,0,0,0,0
0,0,-1992,-86,-81,598,-34,6,120,0,0,0,0,0,0,0,0,0,0,0
0,0,-1988,-81,-73,596,-32,6,137,0,0,0,0,0,0,0,0,0,0,0
0,0,-1989,-81,-80,598,-34,6,129,0,0,0,0,0,0,0,0,0,0,0
0,0,-1993,-84,-77,598,-33,6,126,0,0,0,0,0,0,0,0,0,0,0
0,0,-1993,-83,-75,598,-33,6,129,0,0,0,0,0,0,0,0,0,0,0
0,0,-1993,-87,-88,598,-33,6,112,0,0,0,0,0,0,0,0,0,0,0
0,0,-1994,-81,-73,598,-33,7,133,0,0,0,0,0,0,0,0,0,0,0
0,0,-1993,-80,-82,596,-34,6,122,0,0,0,0,0,0,0,0,0,0,0
0,0,-1988,-88,-80,598,-36,6,121,0,0,0,0,0,0,0,0,0,0,0
0,0,-1989,-85,-81,599,-34,7,126,0,0,0,0,0,0,0,0,0,0,0
0,0,-1994,-80,-78,599,-33,7,130,0,0,0,0,0,0,0,0,0,0,0
0,0,-1997,-82,-84,597,-31,6,118,0,0,0,0,0,0,0,0,0,0,0
0,0,-1989,-90,-81,598,-33,5,119,0,0,0,0,0,0,0,0,0,0,0
0,0,-1997,-81,-90,598,-32,7,114,0,0,0,0,0,0,0,0,0,0,0
0,0,-1990,-81,-77,597,-34,7,131,0,0,0,0,0,0,0,0,0,0,0
0,0,-1989,-84,-78,597,-34,6,127,0,0,0,0,0,0,0,0,0,0,0
0,0,-1987,-87,-80,596,-31,7,127,0,0,0,0,0,0,0,0,0,0,0
0,0,-1985,-83,-72,597,-34,7,139,0,0,0,0,0,0,0,0,0,0,0
0,0,-1987,-89,-75,597,-34,6,127,0,0,0,0,0,0,0,0,0,0,0
0,0,-1987,-89,-80,597,-33,9,126,0,0,0,0,0,0,0,0,0,0,0
0,0,-1990,-88,-83,598,-33,6,119,0,0,0,0,0,0,0,0,0,0,0
0,0,-1992,-86,-86,597,-33,7,116,0,0,0,0,0,0,0,0,0,0,0
0,0,-1995,-87,-78,597,-33,8,121,0,0,0,0,0,0,0,0,0,0,0
0,0,-1992,-84,-72,598,-34,7,132,0,0,0,0,0,0,0,0,0,0,0
0,0,-1994,-86,-77,598,-34,5,121,0,0,0,0,0,0,0,0,0,0,0
0,0,-1991,-87,-77,596,-34,7,123,0,0,0,0,0,0,0,0,0,0,0
0,0,-1988,-83,-77,597,-35,7,130,0,0,0,0,0,0,0,0,0,0,0
0,0,-1989,-87,-73,598,-34,7,131,0,0,0,0,0,0,0,0,0,0,0
0,0,-1992,-86,-81,597,-34,7,120,0,0,0,0,0,0,0,0,0,0,0
0,0,-1990,-91,-83,600,-33,8,120,0,0,0,0,0,0,0,0,0,0,0
0,0,-1982,-88,-79,599,-33,7,133,0,0,0,0,0,0,0,0,0,0,0
0,0,-1997,-86,-82,597,-34,6,113,0,0,0,0,0,0,0,0,0,0,0
0,0,-1988,-94,-71,598,-35,7,126,0,0,0,0,0,0,0,0,0,0,0
0,0,-1991,-84,-81,598,-35,6,122,0,0,0,0,0,0,0,0,0,0,0
0,0,-1989,-80,-82,598,-34,8,130,0,0,0,0,0,0,0,0,0,0,0
0,0,-1991,-85,-81,599,-34,8,125,0,0,0,0,0,0,0,0,0,0,0
0,0,-1987,-88,-70,598,-35,7,134,0,0,0,0,0,0,0,0,0,0,0
0,0,-1984,-84,-72,598,-32,9,144,0,0,0,0,0,0,0,0,0,0,0
0,0,-1985,-83,-70,597,-34,7,141,0,0,0,0,0,0,0,0,0,0,0
0,0,-1993,-76,-85,598,-36,6,123,0,0,0,0,0,0,0,0,0,0,0
0,0,-1989,-86,-76,597,-34,5,126,0,0,0,0,0,0,0,0,0,0,0
0,0,-1990,-84,-83,596,-33,7,122,0,0,0,0,0,0,0,0,0,0,0
0,0,-1987,-80,-75,596,-33,6,136,0,0,0,0,0,0,0,0,0,0,0
0,0,-1984,-87,-84,597,-33,6,124,0,0,0,0,0,0,0,0,0,0,0
0,0,-1983,-80,-64,596,-33,7,152,0,0,0,0,0,0,0,0,0,0,0
0,0,-1987,-76,-81,596,-33,6,134,0,0,0,0,0,0,0,0,0,0,0
0,0,-1985,-84,-79,597,-33,6,131,0,0,0,0,0,0,0,0,0,0,0
0,0,-1982,-84,-67,596,-36,8,144,0,0,0,0,0,0,0,0,0,0,0
0,0,-1990,-86,-77,598,-34,6,126,0,0,0,0,0,0,0,0,0,0,0
0,0,-1988,-85,-79,598,-34,8,129,0,0,0,0,0,0,0,0,0,0,0
0,0,-1995,-82,-77,598,-34,7,126,0,0,0,0,0,0,0,0,0,0,0
0,0,-1995,-94,-89,596,-34,6,99,0,0,0,0,0,0,0,0,0,0,0
0,0,-1994,-88,-82,596,-35,7,113,0,0,0,0,0,0,0,0,0,0,0
0,0,-1981,-84,-72,598,-34,7,143,0,0,0,0,0,0,0,0,0,0,0
0,0,-1984,-91,-81,597,-35,7,122,0,0,0,0,0,0,0,0,0,0,0
0,0,-1991,-86,-76,597,-35,8,126,0,0,0,0,0,0,0,0,0,0,0
0,0,-1985,-82,-63,598,-35,7,149,0,0,0,0,0,0,0,0,0,0,0
0,0,-1988,-85,-68,597,-33,6,138,0,0,0,0,0,0,0,0,0,0,0
0,0,-1989,-87,-72,598,-32,7,134,0,0,0,0,0,0,0,0,0,0,0
0,0,-1987,-90,-73,597,-34,8,130,0,0,0,0,0,0,0,0,0,0,0
0,0,-1994,-96,-65,597,-32,6,125,0,0,0,0,0,0,0,0,0,0,0
0,0,-1985,-83,-77,595,-34,7,132,0,0,0,0,0,0,0,0,0,0,0
0,0,-1982,-82,-68,595,-36,6,142,0,0,0,0,0,0,0,0,0,0,0
0,0,-1987,-96,-75,597,-37,7,118,0,0,0,0,0,0,0,0,0,0,0
0,0,-1987,-85,-75,596,-33,7,132,0,0,0,0,0,0,0,0,0,0,0
0,0,-1984,-86,-76,599,-33,7,136,0,0,0,0,0,0,0,0,0,0,0
0,0,-1986,-89,-66,597,-34,5,136,0,0,0,0,0,0,0,0,0,0,0
0,0,-1985,-85,-78,598,-34,6,131,0,0,0,0,0,0,0,0,0,0,0
0,0,-1985,-81,-91,598,-34,7,123,0,0,0,0,0,0,0,0,0,0,0
0,0,-1985,-83,-79,596,-34,6,130,0,0,0,0,0,0,0,0,0,0,0
0,0,-1988,-81,-77,600,-35,6,134,0,0,0,0,0,0,0,0,0,0,0
0,0,-1992,-90,-81,596,-33,6,115,0,0,0,0,0,0,0,0,0,0,0
0,0,-1992,-78,-70,598,-34,5,138,0,0,0,0,0,0,0,0,0,0,0
0,0,-1995,-93,-85,598,-35,8,107,0,0,0,0,0,0,0,0,0,0,0
0,0,-1990,-76,-83,599,-34,7,132,0,0,0,0,0,0,0,0,0,0,0
0,0,-1992,-84,-73,597,-33,8,132,0,0,0,0,0,0,0,0,0,0,0
0,0,-1988,-87,-70,596,-34,6,132,0,0,0,0,0,0,0,0,0,0,0
0,0,-1987,-89,-81,597,-33,7,123,0,0,0,0,0,0,0,0,0,0,0
0,0,-1988,-87,-78,600,-35,7,128,0,0,0,0,0,0,0,0,0,0,0
0,0,-1994,-83,-69,598,-34,8,135,0,0,0,0,0,0,0,0,0,0,0
0,0,-1992,-81,-71,598,-33,7,137,0,0,0,0,0,0,0,0,0,0,0
0,0,-1988,-87,-84,598,-33,7,122,0,0,0,0,0,0,0,0,0,0,0
0,0,-1987,-85,-76,598,-33,5,131,0,0,0,0,0,0,0,0,0,0,0
0,0,-1985,-91,-74,599,-34,8,132,0,0,0,0,0,0,0,0,0,0,0
0,0,-1978,-89,-81,597,-35,7,130,0,0,0,0,0,0,0,0,0,0,0
0,0,-1999,-87,-77,597,-33,7,117,0,0,0,0,0,0,0,0,0,0,0
0,0,-1986,-87,-82,599,-34,6,125,0,0,0,0,0,0,0,0,0,0,0
0,0,-1989,-91,-73,599,-35,6,126,0,0,0,0,0,0,0,0,0,0,0
0,0,-1997,-89,-72,597,-35,6,119,0,0,0,0,0,0,0,0,0,0,0
0,0,-1988,-86,-77,599,-36,6,127,0,0,0,0,0,0,0,0,0,0,0
0,0,-1991,-84,-82,598,-34,7,123,0,0,0,0,0,0,0,0,0,0,0
0,0,-1991,-78,-80,597,-34,6,129,0,0,0,0,0,0,0,0,0,0,0
0,0,-1993,-83,-72,597,-34,5,129,0,0,0,0,0,0,0,0,0,0,0
0,0,-1988,-90,-64,597,-34,7,137,0,0,0,0,0,0,0,0,0,0,0
0,0,-1986,-82,-69,596,-34,5,139,0,0,0,0,0,0,0,0,0,0,0
0,0,-1993,-89,-79,596,-35,7,116,0,0,0,0,0,0,0,0,0,0,0
0,0,-2000,-86,-77,597,-33,8,118,0,0,0,0,0,0,0,0,0,0,0
0,0,-1993,-89,-86,598,-35,8,112,0,0,0,0,0,0,0,0,0,0,0
0,0,-1985,-88,-84,598,-32,7,125,0,0,0,0,0,0,0,0,0,0,0
0,0,-1987,-91,-74,599,-34,7,129,0,0,0,0,0,0,0,0,0,0,0
0,0,-1989,-81,-67,598,-31,5,144,0,0,0,0,0,0,0,0,0,0,0
0,0,-1982,-78,-75,596,-33,6,143,0,0,0,0,0,0,0,0,0,0,0
0,0,-1985,-88,-70,599,-34,7,138,0,0,0,0,0,0,0,0,0,0,0
0,0,-1990,-80,-75,598,-34,5,133,0,0,0,0,0,0,0,0,0,0,0
0,0,-1988,-84,-84,596,-35,6,120,0,0,0,0,0,0,0,0,0,0,0
0,0,-1986,-88,-81,597,-36,6,121,0,0,0,0,0,0,0,0,0,0,0
0,0,-1988,-78,-69,598,-34,6,144,0,0,0,0,0,0,0,0,0,0,0
0,0,-1988,-79,-79,598,-34,8,135,0,0,0,0,0,0,0,0,0,0,0
0,0,-1984,-83,-73,597,-34,6,138,0,0,0,0,0,0,0,0,0,0,0
0,0,-1995,-87,-83,597,-33,7,115,0,0,0,0,0,0,0,0,0,0,0
0,0,-1991,-90,-71,598,-32,7,130,0,0,0,0,0,0,0,0,0,0,0
0,0,-1993,-84,-79,597,-34,7,123,0,0,0,0,0,0,0,0,0,0,0
0,0,-1985,-86,-85,597,-35,7,122,0,0,0,0,0,0,0,0,0,0,0
0,0,-1986,-78,-68,598,-35,6,146,0,0,0,0,0,0,0,0,0,0,0
0,0,-1990,-86,-74,598,-34,8,131,0,0,0,0,0,0,0,0,0,0,0
0,0,-1987,-87,-82,598,-34,8,125,0,0,0,0,0,0,0,0,0,0,0
0,0,-1986,-82,-73,599,-35,7,139,0,0,0,0,0,0,0,0,0,0,0
0,0,-1994,-87,-79,598,-35,6,118,0,0,0,0,0,0,0,0,0,0,0
0,0,-1993,-81,-83,597,-33,6,122,0,0,0,0,0,0,0,0,0,0,0
0,0,-1990,-84,-73,598,-34,7,133,0,0,0,0,0,0,0,0,0,0,0
0,0,-1991,-88,-77,598,-35,6,122,0,0,0,0,0,0,0,0,0,0,0
0,0,-1986,-84,-85,597,-34,5,122,0,0,0,0,0,0,0,0,0,0,0
0,0,-1986,-81,-85,597,-33,7,128,0,0,0,0,0,0,0,0,0,0,0
0,0,-1993,-87,-77,597,-34,7,122,0,0,0,0,0,0,0,0,0,0,0
0,0,-1992,-85,-66,596,-33,7,136,0,0,0,0,0,0,0,0,0,0,0
0,0,-1998,-91,-84,597,-33,7,107,0,0,0,0,0,0,0,0,0,0,0
0,0,-1985,-84,-65,597,-33,6,145,0,0,0,0,0,0,0,0,0,0,0
0,0,-1992,-97,-79,597,-34,6,110,0,0,0,0,0,0,0,0,0,0,0
0,0,-1982,-86,-85,598,-33,6,127,0,0,0,0,0,0,0,0,0,0,0
0,0,-1989,-84,-96,598,-36,6,108,0,0,0,0,0,0,0,0,0,0,0
0,0,-1992,-92,-83,597,-32,6,113,0,0,0,0,0,0,0,0,0,0,0
0,0,-1993,-93,-77,597,-33,6,116,0,0,0,0,0,0,0,0,0,0,0
0,0,-1978,-88,-73,598,-33,5,140,0,0,0,0,0,0,0,0,0,0,0
0,0,-1991,-86,-81,597,-33,7,122,0,0,0,0,0,0,0,0,0,0,0
0,0,-1998,-91,-73,597,-32,7,119,0,0,0,0,0,0,0,0,0,0,0
0,0,-1982,-87,-82,595,-36,7,124,0,0,0,0,0,0,0,0,0,0,0
0,0,-1982,-85,-81,597,-32,6,132,0,0,0,0,0,0,0,0,0,0,0
0,0,-1988,-82,-89,596,-34,6,118,0,0,0,0,0,0,0,0,0,0,0
0,0,-1988,-79,-73,597,-33,7,140,0,0,0,0,0,0,0,0,0,0,0
0,0,-1983,-86,-82,597,-34,8,129,0,0,0,0,0,0,0,0,0,0,0
0,0,-1984,-87,-78,595,-34,7,128,0,0,0,0,0,0,0,0,0,0,0
0,0,-1989,-82,-83,597,-35,7,124,0,0,0,0,0,0,0,0,0,0,0
0,0,-1991,-88,-83,598,-35,7,117,0,0,0,0,0,0,0,0,0,0,0
0,0,-1990,-91,-69,597,-35,6,127,0,0,0,0,0,0,0,0,0,0,0
0,0,-1989,-85,-75,598,-34,7,131,0,0,0,0,0,0,0,0,0,0,0
0,0,-1981,-79,-79,598,-35,7,140,0,0,0,0,0,0,0,0,0,0,0
0,0,-1987,-86,-69,599,-33,7,140,0,0,0,0,0,0,0,0,0,0,0
0,0,-1985,-88,-80,598,-34,7,127,0,0,0,0,0,0,0,0,0,0,0
0,0,-1986,-96,-77,597,-36,7,118,0,0,0,0,0,0,0,0,0,0,0
0,0,-1989,-90,-85,598,-35,8,116,0,0,0,0,0,0,0,0,0,0,0
0,0,-1984,-84,-68,597,-35,7,142,0,0,0,0,0,0,0,0,0,0,0
0,0,-1992,-80,-83,598,-35,6,123,0,0,0,0,0,0,0,0,0,0,0
0,0,-1988,-83,-79,598,-34,9,132,0,0,0,0,0,0,0,0,0,0,0
0,0,-1984,-90,-80,595,-33,8,125,0,0,0,0,0,0,0,0,0,0,0
0,0,-1988,-81,-79,596,-33,7,131,0,0,0,0,0,0,0,0,0,0,0
0,0,-1988,-86,-80,596,-34,8,125,0,0,0,0,0,0,0,0,0,0,0
0,0,-1985,-84,-69,599,-33,7,144,0,0,0,0,0,0,0,0,0,0,0
0,0,-1996,-97,-73,597,-34,7,113,0,0,0,0,0,0,0,0,0,0,0
0,0,-1992,-88,-90,596,-34,7,108,0,0,0,0,0,0,0,0,0,0,0
0,0,-1991,-91,-74,599,-35,7,124,0,0,0,0,0,0,0,0,0,0,0
0,0,-1979,-91,-76,599,-35,6,133,0,0,0,0,0,0,0,0,0,0,0
0,0,-1998,-85,-78,598,-35,6,117,0,0,0,0,0,0,0,0,0,0,0
0,0,-1986,-73,-87,598,-35,8,134,0,0,0,0,0,0,0,0,0,0,0
0,0,-1988,-90,-77,598,-35,6,123,0,0,0,0,0,0,0,0,0,0,0
0,0,-1991,-90,-79,597,-33,7,120,0,0,0,0,0,0,0,0,0,0,0
0,0,-1989,-90,-79,598,-33,10,126,0,0,0,0,0,0,0,0,0,0,0
0,0,-2000,-83,-83,599,-33,7,116,0,0,0,0,0,0,0,0,0,0,0
0,0,-1993,-86,-77,597,-33,7,124,0,0,0,0,0,0,0,0,0,0,0
0,0,-1983,-86,-68,597,-33,8,144,0,0,0,0,0,0,0,0,0,0,0
0,0,-1989,-87,-74,598,-34,6,129,0,0,0,0,0,0,0,0,0,0,0
0,0,-1989,-90,-84,599,-34,7,118,0,0,0,0,0,0,0,0,0,0,0
0,0,-1993,-82,-75,597,-35,7,128,0,0,0,0,0,0,0,0,0,0,0
0,0,-1989,-77,-83,597,-34,6,129,0,0,0,0,0,0,0,0,0,0,0
0,0,-1994,-90,-78,598,-33,9,121,0,0,0,0,0,0,0,0,0,0,0
0,0,-1988,-91,-82,598,-33,6,119,0,0,0,0,0,0,0,0,0,0,0
0,0,-1988,-87,-75,598,-35,7,129,0,0,0,0,0,0,0,0,0,0,0
0,0,-1979,-95,-77,596,-34,7,127,0,0,0,0,0,0,0,0,0,0,0
0,0,-1983,-83,-76,596,-33,6,136,0,0,0,0,0,0,0,0,0,0,0
0,0,-1989,-87,-70,596,-34,6,131,0,0,0,0,0,0,0,0,0,0,0
0,0,-1982,-85,-71,598,-33,7,143,0,0,0,0,0,0,0,0,0,0,0
0,0,-1994,-82,-82,597,-35,6,119,0,0,0,0,0,0,0,0,0,0,0
0,0,-1990,-88,-83,598,-34,9,121,0,0,0,0,0,0,0,0,0,0,0
0,0,-1987,-92,-70,598,-34,7,131,0,0,0,0,0,0,0,0,0,0,0
0,0,-1980,-90,-77,597,-32,7,134,0,0,0,0,0,0,0,0,0,0,0
0,0,-1989,-80,-72,597,-35,7,137,0,0,0,0,0,0,0,0,0,0,0
0,0,-1986,-89,-71,597,-33,7,134,0,0,0,0,0,0,0,0,0,0,0
0,0,-1984,-87,-72,598,-34,7,137,0,0,0,0,0,0,0,0,0,0,0
0,0,-1977,-87,-81,597,-34,6,133,0,0,0,0,0,0,0,0,0,0,0
0,0,-1991,-81,-83,597,-34,6,123,0,0,0,0,0,0,0,0,0,0,0
0,0,-1994,-89,-82,597,-33,8,116,0,0,0,0,0,0,0,0,0,0,0
0,0,-1984,-90,-66,598,-35,5,137,0,0,0,0,0,0,0,0,0,0,0
0,0,-1987,-89,-84,598,-33,7,121,0,0,0,0,0,0,0,0,0,0,0
0,0,-1988,-82,-63,597,-34,6,145,0,0,0,0,0,0,0,0,0,0,0
0,0,-1986,-86,-79,598,-35,7,128,0,0,0,0,0,0,0,0,0,0,0
0,0,-1989,-90,-68,597,-34,8,133,0,0,0,0,0,0,0,0,0,0,0
0,0,-1992,-87,-66,596,-34,4,130,0,0,0,0,0,0,0,0,0,0,0
0,0,-1985,-90,-77,598,-34,6,127,0,0,0,0,0,0,0,0,0,0,0
0,0,-1992,-86,-82,598,-34,5,118,0,0,0,0,0,0,0,0,0,0,0
0,0,-1994,-87,-78,598,-35,6,119,0,0,0,0,0,0,0,0,0,0,0
0,0,-1993,-82,-82,598,-34,7,123,0,0,0,0,0,0,0,0,0,0,0
0,0,-1992,-87,-73,597,-34,8,128,0,0,0,0,0,0,0,0,0,0,0
0,0,-1990,-88,-75,597,-35,6,124,0,0,0,0,0,0,0,0,0,0,0
0,0,-1991,-90,-72,598,-34,8,128,0,0,0,0,0,0,0,0,0,0,0
0,0,-1985,-86,-82,599,-31,7,131,0,0,0,0,0,0,0,0,0,0,0
0,0,-1986,-87,-82,597,-32,6,125,0,0,0,0,0,0,0,0,0,0,0
0,0,-1996,-89,-85,596,-35,7,107,0,0,0,0,0,0,0,0,0,0,0
0,0,-1993,-90,-85,599,-34,7,113,0,0,0,0,0,0,0,0,0,0,0
0,0,-1994,-83,-83,597,-35,5,116,0,0,0,0,0,0,0,0,0,0,0
0,0,-1989,-84,-70,597,-33,7,137,0,0,0,0,0,0,0,0,0,0,0
0,0,-1990,-88,-80,600,-34,4,121,0,0,0,0,0,0,0,0,0,0,0
0,0,-1983,-90,-74,597,-34,6,131,0,0,0,0,0,0,0,0,0,0,0
0,0,-1992,-92,-84,598,-35,6,110,0,0,0,0,0,0,0,0,0,0,0
0,0,-1991,-88,-71,595,-35,7,126,0,0,0,0,0,0,0,0,0,0,0
0,0,-1991,-90,-77,599,-36,6,120,0,0,0,0,0,0,0,0,0,0,0
0,0,-1993,-86,-87,599,-32,7,117,0,0,0,0,0,0,0,0,0,0,0
0,0,-1996,-86,-79,597,-34,9,120,0,0,0,0,0,0,0,0,0,0,0
0,0,-1989,-88,-67,598,-36,7,134,0,0,0,0,0,0,0,0,0,0,0
0,0,-1981,-91,-83,597,-35,9,125,0,0,0,0,0,0,0,0,0,0,0
0,0,-1988,-82,-76,597,-33,8,135,0,0,0,0,0,0,0,0,0,0,0
0,0,-1984,-87,-79,598,-33,7,131,0,0,0,0,0,0,0,0,0,0,0
0,0,-1986,-88,-85,598,-35,7,120,0,0,0,0,0,0,0,0,0,0,0
0,0,-1983,-81,-67,597,-33,6,148,0,0,0,0,0,0,0,0,0,0,0
0,0,-1988,-88,-71,598,-35,7,132,0,0,0,0,0,0,0,0,0,0,0
0,0,-1991,-85,-82,597,-34,7,121,0,0,0,0,0,0,0,0,0,0,0
0,0,-1990,-89,-80,597,-34,8,121,0,0,0,0,0,0,0,0,0,0,0
0,0,-1982,-89,-80,599,-34,7,130,0,0,0,0,0,0,0,0,0,0,0
0,0,-1981,-91,-83,597,-34,6,123,0,0,0,0,0,0,0,0,0,0,0
0,0,-1985,-85,-86,598,-33,6,124,0,0,0,0,0,0,0,0,0,0,0
0,0,-1993,-78,-78,597,-35,7,129,0,0,0,0,0,0,0,0,0,0,0
0,0,-1995,-88,-78,598,-34,7,119,0,0,0,0,0,0,0,0,0,0,0
0,0,-1990,-82,-84,597,-34,8,124,0,0,0,0,0,0,0,0,0,0,0
0,0,-1987,-90,-77,596,-36,6,121,0,0,0,0,0,0,0,0,0,0,0
0,0,-1992,-85,-73,596,-35,7,127,0,0,0,0,0,0,0,0,0,0,0
0,0,-1989,-86,-82,598,-33,8,125,0,0,0,0,0,0,0,0,0,0,0
0,0,-1993,-91,-82,598,-33,5,113,0,0,0,0,0,0,0,0,0,0,0
0,0,-1984,-91,-93,597,-34,6,110,0,0,0,0,0,0,0,0,0,0,0
0,0,-1992,-85,-80,596,-33,7,122,0,0,0,0,0,0,0,0,0,0,0
0,0,-1989,-82,-84,596,-33,7,124,0,0,0,0,0,0,0,0,0,0,0
0,0,-1988,-88,-69,597,-36,5,130,0,0,0,0,0,0,0,0,0,0,0
0,0,-1989,-83,-65,597,-34,6,141,0,0,0,0,0,0,0,0,0,0,0
0,0,-1993,-79,-86,598,-36,8,121,0,0,0,0,0,0,0,0,0,0,0
0,0,-1982,-86,-84,597,-34,6,126,0,0,0,0,0,0,0,0,0,0,0
0,0,-1982,-85,-65,597,-34,7,147,0,0,0,0,0,0,0,0,0,0,0
0,0,-1990,-87,-87,599,-32,8,120,0,0,0,0,0,0,0,0,0,0,0
0,0,-1984,-81,-69,598,-33,8,148,0,0,0,0,0,0,0,0,0,0,0
0,0,-1993,-93,-83,597,-34,6,109,0,0,0,0,0,0,0,0,0,0,0
0,0,-1986,-93,-73,598,-34,5,126,0,0,0,0,0,0,0,0,0,0,0
0,0,-1992,-88,-78,598,-32,8,125,0,0,0,0,0,0,0,0,0,0,0
0,0,-1999,-93,-68,598,-32,6,121,0,0,0,0,0,0,0,0,0,0,0
0,0,-1992,-84,-78,597,-33,7,126,0,0,0,0,0,0,0,0,0,0,0
0,0,-1992,-82,-77,598,-34,5,127,0,0,0,0,0,0,0,0,0,0,0
0,0,-1992,-85,-60,598,-35,6,141,0,0,0,0,0,0,0,0,0,0,0
0,0,-1997,-80,-79,598,-35,7,123,0,0,0,0,0,0,0,0,0,0,0
0,0,-1994,-87,-77,597,-34,7,121,0,0,0,0,0,0,0,0,0,0,0
0,0,-1994,-91,-80,598,-33,9,118,0,0,0,0,0,0,0,0,0,0,0
0,0,-1991,-83,-77,597,-34,7,128,0,0,0,0,0,0,0,0,0,0,0
0,0,-1986,-92,-72,599,-33,6,131,0,0,0,0,0,0,0,0,0,0,0
0,0,-1982,-90,-84,598,-34,7,124,0,0,0,0,0,0,0,0,0,0,0
0,0,-1983,-87,-89,597,-33,7,121,0,0,0,0,0,0,0,0,0,0,0
0,0,-1988,-88,-79,598,-33,6,125,0,0,0,0,0,0,0,0,0,0,0
0,0,-1988,-85,-72,597,-34,8,135,0,0,0,0,0,0,0,0,0,0,0
0,0,-1993,-94,-80,599,-35,6,112,0,0,0,0,0,0,0,0,0,0,0
0,0,-1988,-89,-69,597,-32,5,133,0,0,0,0,0,0,0,0,0,0,0
0,0,-1987,-82,-84,598,-33,5,126,0,0,0,0,0,0,0,0,0,0,0
0,0,-1988,-84,-76,597,-33,8,133,0,0,0,0,0,0,0,0,0,0,0
0,0,-1989,-84,-74,599,-34,6,133,0,0,0,0,0,0,0,0,0,0,0
0,0,-1993,-79,-84,598,-34,7,124,0,0,0,0,0,0,0,0,0,0,0
0,0,-1988,-86,-85,598,-33,6,121,0,0,0,0,0,0,0,0,0,0,0
0,0,-1983,-88,-77,598,-35,7,131,0,0,0,0,0,0,0,0,0,0,0
0,0,-1983,-89,-80,598,-34,4,125,0,0,0,0,0,0,0,0,0,0,0
0,0,-1987,-85,-76,598,-36,6,129,0,0,0,0,0,0,0,0,0,0,0
0,0,-1996,-83,-78,598,-34,8,124,0,0,0,0,0,0,0,0,0,0,0
0,0,-1988,-83,-77,598,-36,8,131,0,0,0,0,0,0,0,0,0,0,0
0,0,-1986,-77,-69,599,-35,6,147,0,0,0,0,0,0,0,0,0,0,0
0,0,-1997,-89,-78,598,-34,7,116,0,0,0,0,0,0,0,0,0,0,0
0,0,-1993,-90,-94,598,-33,7,104,0,0,0,0,0,0,0,0,0,0,0
0,0,-1987,-84,-80,596,-33,5,126,0,0,0,0,0,0,0,0,0,0,0
0,0,-2002,-84,-70,596,-34,4,119,0,0,0,0,0,0,0,0,0,0,0
0,0,-1990,-87,-83,597,-34,6,118,0,0,0,0,0,0,0,0,0,0,0
0,0,-1992,-84,-80,597,-35,8,123,0,0,0,0,0,0,0,0,0,0,0
0,0,-1982,-78,-70,599,-35,6,149,0,0,0,0,0,0,0,0,0,0,0
0,0,-1991,-90,-80,598,-33,7,120,0,0,0,0,0,0,0,0,0,0,0
0,0,-1990,-92,-67,598,-35,8,131,0,0,0,0,0,0,0,0,0,0,0
0,0,-1994,-83,-70,598,-32,5,133,0,0,0,0,0,0,0,0,0,0,0
0,0,-1990,-82,-75,597,-35,5,129,0,0,0,0,0,0,0,0,0,0,0
0,0,-1988,-81,-78,597,-35,6,130,0,0,0,0,0,0,0,0,0,0,0
0,0,-1994,-85,-73,597,-32,7,129,0,0,0,0,0,0,0,0,0,0,0
0,0,-1989,-83,-77,598,-33,7,132,0,0,0,0,0,0,0,0,0,0,0
0,0,-1988,-82,-74,597,-34,6,134,0,0,0,0,0,0,0,0,0,0,0
0,0,-1985,-83,-77,597,-33,8,136,0,0,0,0,0,0,0,0,0,0,0
0,0,-1990,-96,-93,597,-33,7,101,0,0,0,0,0,0,0,0,0,0,0
0,0,-1994,-89,-87,598,-35,6,108,0,0,0,0,0,0,0,0,0,0,0
0,0,-1992,-90,-77,600,-34,9,125,0,0,0,0,0,0,0,0,0,0,0
0,0,-1986,-92,-75,597,-34,7,126,0,0,0,0,0,0,0,0,0,0,0
0,0,-1990,-88,-77,597,-33,8,126,0,0,0,0,0,0,0,0,0,0,0
0,0,-1992,-92,-74,597,-34,6,120,0,0,0,0,0,0,0,0,0,0,0
0,0,-1989,-82,-79,598,-33,6,130,0,0,0,0,0,0,0,0,0,0,0
0,0,-1987,-84,-80,596,-34,7,127,0,0,0,0,0,0,0,0,0,0,0
0,0,-1990,-88,-73,597,-33,6,128,0,0,0,0,0,0,0,0,0,0,0
0,0,-1999,-82,-71,598,-34,8,129,0,0,0,0,0,0,0,0,0,0,0
0,0,-1987,-85,-81,598,-33,7,128,0,0,0,0,0,0,0,0,0,0,0
0,0,-1984,-84,-82,598,-34,6,129,0,0,0,0,0,0,0,0,0,0,0
0,0,-1984,-83,-77,598,-33,7,137,0,0,0,0,0,0,0,0,0,0,0
0,0,-1987,-88,-70,598,-32,6,136,0,0,0,0,0,0,0,0,0,0,0
0,0,-1990,-83,-76,597,-35,5,127,0,0,0,0,0,0,0,0,0,0,0
0,0,-1993,-88,-81,598,-34,7,118,0,0,0,0,0,0,0,0,0,0,0
0,0,-1992,-86,-81,596,-33,7,120,0,0,0,0,0,0,0,0,0,0,0
0,0,-1982,-84,-74,595,-35,7,136,0,0,0,0,0,0,0,0,0,0,0
0,0,-1983,-82,-70,598,-33,7,146,0,0,0,0,0,0,0,0,0,0,0
0,0,-1988,-87,-73,597,-34,6,130,0,0,0,0,0,0,0,0,0,0,0
0,0,-1994,-97,-87,596,-33,5,99,0,0,0,0,0,0,0,0,0,0,0
0,0,-1991,-82,-85,595,-35,8,119,0,0,0,0,0,0,0,0,0,0,0
0,0,-1989,-85,-89,597,-33,6,116,0,0,0,0,0,0,0,0,0,0,0
0,0,-1989,-84,-72,599,-33,8,138,0,0,0,0,0,0,0,0,0,0,0
0,0,-1987,-83,-80,598,-34,7,130,0,0,0,0,0,0,0,0,0,0,0
0,0,-1993,-82,-78,597,-35,5,123,0,0,0,0,0,0,0,0,0,0,0
0,0,-1992,-86,-69,598,-34,8,134,0,0,0,0,0,0,0,0,0,0,0
0,0,-1989,-84,-71,598,-34,7,136,0,0,0,0,0,0,0,0,0,0,0
0,0,-1987,-92,-60,598,-34,6,140,0,0,0,0,0,0,0,0,0,0,0
0,0,-1991,-87,-67,598,-35,7,134,0,0,0,0,0,0,0,0,0,0,0
0,0,-1986,-80,-72,598,-34,8,143,0,0,0,0,0,0,0,0,0,0,0
0,0,-1988,-84,-78,597,-34,8,130,0,0,0,0,0,0,0,0,0,0,0
0,0,-1990,-86,-81,598,-33,7,124,0,0,0,0,0,0,0,0,0,0,0
0,0,-1984,-84,-80,599,-35,7,132,0,0,0,0,0,0,0,0,0,0,0
0,0,-1993,-90,-79,599,-35,8,119,0,0,0,0,0,0,0,0,0,0,0
0,0,-1987,-84,-76,597,-35,8,132,0,0,0,0,0,0,0,0,0,0,0
0,0,-1992,-80,-73,598,-35,7,134,0,0,0,0,0,0,0,0,0,0,0
0,0,-1993,-82,-72,597,-35,7,131,0,0,0,0,0,0,0,0,0,0,0
0,0,-1992,-87,-91,598,-33,7,111,0,0,0,0,0,0,0,0,0,0,0
0,0,-1987,-89,-69,596,-35,7,132,0,0,0,0,0,0,0,0,0,0,0
0,0,-1992,-91,-73,600,-33,8,128,0,0,0,0,0,0,0,0,0,0,0
0,0,-1987,-86,-74,599,-34,7,134,0,0,0,0,0,0,0,0,0,0,0
0,0,-1989,-90,-73,595,-33,7,126,0,0,0,0,0,0,0,0,0,0,0
0,0,-1996,-86,-83,598,-34,8,116,0,0,0,0,0,0,0,0,0,0,0
0,0,-1986,-85,-80,595,-34,6,125,0,0,0,0,0,0,0,0,0,0,0
0,0,-1982,-79,-78,597,-35,8,140,0,0,0,0,0,0,0,0,0,0,0
0,0,-1994,-87,-79,597,-34,7,119,0,0,0,0,0,0,0,0,0,0,0
0,0,-1988,-87,-75,598,-33,7,131,0,0,0,0,0,0,0,0,0,0,0
0,0,-1990,-91,-86,598,-33,8,115,0,0,0,0,0,0,0,0,0,0,0
0,0,-1993,-82,-76,600,-35,7,130,0,0,0,0,0,0,0,0,0,0,0
0,0,-1990,-85,-80,598,-35,7,124,0,0,0,0,0,0,0,0,0,0,0
0,0,-1991,-84,-71,599,-35,7,134,0,0,0,0,0,0,0,0,0,0,0
0,0,-1988,-82,-72,598,-34,7,138,0,0,0,0,0,0,0,0,0,0,0
0,0,-1988,-83,-78,598,-35,6,129,0,0,0,0,0,0,0,0,0,0,0
0,0,-1989,-85,-80,596,-36,7,122,0,0,0,0,0,0,0,0,0,0,0
0,0,-1986,-94,-80,597,-34,7,119,0,0,0,0,0,0,0,0,0,0,0
0,0,-1991,-81,-80,596,-33,6,126,0,0,0,0,0,0,0,0,0,0,0
0,0,-1990,-87,-81,596,-34,8,121,0,0,0,0,0,0,0,0,0,0,0
0,0,-1985,-89,-76,598,-33,8,132,0,0,0,0,0,0,0,0,0,0,0
0,0,-1997,-82,-74,598,-34,8,128,0,0,0,0,0,0,0,0,0,0,0
0,0,-1984,-77,-75,596,-33,7,143,0,0,0,0,0,0,0,0,0,0,0
0,0,-1985,-85,-70,598,-33,6,140,0,0,0,0,0,0,0,0,0,0,0
0,0,-1995,-87,-71,597,-34,5,124,0,0,0,0,0,0,0,0,0,0,0
0,0,-1985,-80,-71,596,-34,7,142,0,0,0,0,0,0,0,0,0,0,0
0,0,-1989,-87,-76,597,-35,7,126,0,0,0,0,0,0,0,0,0,0,0
0,0,-1989,-83,-71,597,-34,8,137,0,0,0,0,0,0,0,0,0,0,0
0,0,-1997,-78,-82,598,-34,8,124,0,0,0,0,0,0,0,0,0,0,0
0,0,-1989,-79,-82,598,-33,6,130,0,0,0,0,0,0,0,0,0,0,0
0,0,-1990,-87,-79,597,-34,6,122,0,0,0,0,0,0,0,0,0,0,0
0,0,-1987,-89,-64,597,-34,7,139,0,0,0,0,0,0,0,0,0,0,0
0,0,-1987,-85,-71,597,-37,7,133,0,0,0,0,0,0,0,0,0,0,0
0,0,-1990,-84,-76,596,-34,6,127,0,0,0,0,0,0,0,0,0,0,0
0,0,-1996,-76,-66,595,-36,6,136,0,0,0,0,0,0,0,0,0,0,0
0,0,-1990,-93,-72,596,-35,8,123,0,0,0,0,0,0,0,0,0,0,0
0,0,-1993,-86,-83,598,-35,6,116,0,0,0,0,0,0,0,0,0,0,0
0,0,-1992,-91,-74,597,-35,5,119,0,0,0,0,0,0,0,0,0,0,0
0,0,-1987,-92,-77,597,-33,8,125,0,0,0,0,0,0,0,0,0,0,0
0,0,-1984,-83,-75,598,-34,9,140,0,0,0,0,0,0,0,0,0,0,0
0,0,-1993,-80,-76,599,-33,7,133,0,0,0,0,0,0,0,0,0,0,0
0,0,-1991,-81,-79,597,-34,5,126,0,0,0,0,0,0,0,0,0,0,0
0,0,-1988,-88,-77,598,-34,5,125,0,0,0,0,0,0,0,0,0,0,0
0,0,-1992,-83,-72,596,-34,6,130,0,0,0,0,0,0,0,0,0,0,0
0,0,-1983,-84,-75,596,-32,6,137,0,0,0,0,0,0,0,0,0,0,0
0,0,-1988,-86,-85,596,-35,7,118,0,0,0,0,0,0,0,0,0,0,0
0,0,-1989,-86,-84,597,-34,7,120,0,0,0,0,0,0,0,0,0,0,0
0,0,-1982,-90,-68,599,-34,8,142,0,0,0,0,0,0,0,0,0,0,0
0,0,-1983,-82,-77,598,-35,8,138,0,0,0,0,0,0,0,0,0,0,0
0,0,-1987,-84,-75,597,-35,7,132,0,0,0,0,0,0,0,0,0,0,0
0,0,-1988,-82,-79,598,-34,7,131,0,0,0,0,0,0,0,0,0,0,0
0,0,-1980,-83,-75,598,-35,7,141,0,0,0,0,0,0,0,0,0,0,0
0,0,-1982,-88,-78,597,-35,6,129,0,0,0,0,0,0,0,0,0,0,0
0,0,-1977,-84,-67,599,-33,6,153,0,0,0,0,0,0,0,0,0,0,0
0,0,-1985,-87,-84,596,-34,5,120,0,0,0,0,0,0,0,0,0,0,0
0,0,-1989,-92,-81,599,-35,7,118,0,0,0,0,0,0,0,0,0,0,0
0,0,-1988,-86,-74,597,-34,7,131,0,0,0,0,0,0,0,0,0,0,0
0,0,-1994,-86,-75,598,-34,7,125,0,0,0,0,0,0,0,0,0,0,0
0,0,-1986,-80,-73,596,-36,6,136,0,0,0,0,0,0,0,0,0,0,0
0,0,-1989,-89,-72,597,-35,7,128,0,0,0,0,0,0,0,0,0,0,0
0,0,-1986,-85,-68,597,-33,7,141,0,0,0,0,0,0,0,0,0,0,0
0,0,-1990,-91,-76,598,-34,7,123,0,0,0,0,0,0,0,0,0,0,0
0,0,-1994,-92,-77,597,-34,6,115,0,0,0,0,0,0,0,0,0,0,0
0,0,-1986,-87,-80,597,-34,5,124,0,0,0,0,0,0,0,0,0,0,0
0,0,-1983,-92,-79,596,-33,7,125,0,0,0,0,0,0,0,0,0,0,0
0,0,-1987,-85,-73,595,-33,7,133,0,0,0,0,0,0,0,0,0,0,0
0,0,-1983,-89,-83,598,-33,7,126,0,0,0,0,0,0,0,0,0,0,0
0,0,-1993,-83,-79,596,-34,6,122,0,0,0,0,0,0,0,0,0,0,0
0,0,-1988,-87,-81,597,-35,7,122,0,0,0,0,0,0,0,0,0,0,0
0,0,-1985,-86,-66,599,-33,7,145,0,0,0,0,0,0,0,0,0,0,0
0,0,-1981,-86,-74,596,-33,8,139,0,0,0,0,0,0,0,0,0,0,0
0,0,-1992,-85,-78,599,-34,6,125,0,0,0,0,0,0,0,0,0,0,0
0,0,-1990,-86,-85,595,-34,8,117,0,0,0,0,0,0,0,0,0,0,0
0,0,-1995,-91,-84,596,-34,7,108,0,0,0,0,0,0,0,0,0,0,0
0,0,-1992,-86,-72,597,-32,7,131,0,0,0,0,0,0,0,0,0,0,0
0,0,-1992,-89,-74,598,-34,7,125,0,0,0,0,0,0,0,0,0,0,0
0,0,-1988,-91,-67,597,-35,6,131,0,0,0,0,0,0,0,0,0,0,0
0,0,-1992,-93,-75,599,-33,6,121,0,0,0,0,0,0,0,0,0,0,0
0,0,-1983,-86,-77,597,-34,6,132,0,0,0,0,0,0,0,0,0,0,0
0,0,-1987,-89,-72,597,-33,6,131,0,0,0,0,0,0,0,0,0,0,0
0,0,-1987,-90,-71,596,-33,6,130,0,0,0,0,0,0,0,0,0,0,0
0,0,-2002,-89,-88,596,-35,8,99,0,0,0,0,0,0,0,0,0,0,0
0,0,-1986,-82,-74,597,-34,7,137,0,0,0,0,0,0,0,0,0,0,0
0,0,-1987,-85,-82,597,-33,4,123,0,0,0,0,0,0,0,0,0,0,0
0,0,-1990,-89,-81,598,-36,6,117,0,0,0,0,0,0,0,0,0,0,0
0,0,-1994,-88,-72,598,-35,8,126,0,0,0,0,0,0,0,0,0,0,0
0,0,-1983,-85,-83,597,-34,7,128,0,0,0,0,0,0,0,0,0,0,0
0,0,-1989,-88,-78,596,-34,6,122,0,0,0,0,0,0,0,0,0,0,0
0,0,-1983,-88,-80,596,-35,6,125,0,0,0,0,0,0,0,0,0,0,0
0,0,-1991,-89,-80,596,-33,6,118,0,0,0,0,0,0,0,0,0,0,0
0,0,-1988,-86,-75,595,-33,6,128,0,0,0,0,0,0,0,0,0,0,0
0,0,-1989,-84,-73,598,-33,8,136,0,0,0,0,0,0,0,0,0,0,0
0,0,-1989,-77,-86,599,-34,6,128,0,0,0,0,0,0,0,0,0,0,0
0,0,-1990,-86,-88,599,-33,7,118,0,0,0,0,0,0,0,0,0,0,0
0,0,-1987,-84,-78,597,-35,9,131,0,0,0,0,0,0,0,0,0,0,0
0,0,-1990,-83,-73,597,-34,9,135,0,0,0,0,0,0,0,0,0,0,0
0,0,-1989,-85,-78,597,-36,6,124,0,0,0,0,0,0,0,0,0,0,0
0,0,-1988,-92,-79,598,-33,8,123,0,0,0,0,0,0,0,0,0,0,0
0,0,-1988,-93,-78,597,-34,10,123,0,0,0,0,0,0,0,0,0,0,0
0,0,-1987,-85,-82,596,-34,7,124,0,0,0,0,0,0,0,0,0,0,0
0,0,-1986,-79,-81,597,-35,5,130,0,0,0,0,0,0,0,0,0,0,0
0,0,-1987,-85,-77,597,-35,6,128,0,0,0,0,0,0,0,0,0,0,0
0,0,-1985,-83,-86,598,-35,6,124,0,0,0,0,0,0,0,0,0,0,0
0,0,-1988,-95,-75,597,-34,7,121,0,0,0,0,0,0,0,0,0,0,0
0,0,-1994,-82,-72,596,-34,7,130,0,0,0,0,0,0,0,0,0,0,0
0,0,-1984,-86,-80,597,-33,8,131,0,0,0,0,0,0,0,0,0,0,0
0,0,-1993,-91,-75,597,-33,7,121,0,0,0,0,0,0,0,0,0,0,0
0,0,-1996,-87,-64,596,-35,7,130,0,0,0,0,0,0,0,0,0,0,0
0,0,-1990,-82,-78,596,-34,7,128,0,0,0,0,0,0,0,0,0,0,0
0,0,-1988,-92,-78,599,-32,7,125,0,0,0,0,0,0,0,0,0,0,0
0,0,-1993,-88,-81,597,-33,6,117,0,0,0,0,0,0,0,0,0,0,0
0,0,-1995,-86,-78,598,-33,7,122,0,0,0,0,0,0,0,0,0,0,0
0,0,-1997,-79,-75,597,-32,7,130,0,0,0,0,0,0,0,0,0,0,0
0,0,-1984,-79,-73,597,-34,6,142,0,0,0,0,0,0,0,0,0,0,0
0,0,-1989,-86,-64,598,-34,7,141,0,0,0,0,0,0,0,0,0,0,0
0,0,-1990,-91,-75,599,-33,6,125,0,0,0,0,0,0,0,0,0,0,0
0,0,-1994,-86,-82,596,-33,7,117,0,0,0,0,0,0,0,0,0,0,0
0,0,-1983,-84,-76,596,-35,6,133,0,0,0,0,0,0,0,0,0,0,0
0,0,-1993,-85,-80,596,-34,7,120,0,0,0,0,0,0,0,0,0,0,0
0,0,-1987,-85,-76,597,-36,7,129,0,0,0,0,0,0,0,0,0,0,0
0,0,-1997,-87,-84,597,-33,7,112,0,0,0,0,0,0,0,0,0,0,0
0,0,-1997,-84,-75,597,-34,7,123,0,0,0,0,0,0,0,0,0,0,0
0,0,-1992,-87,-72,597,-33,7,129,0,0,0,0,0,0,0,0,0,0,0
0,0,-1981,-86,-77,599,-34,6,136,0,0,0,0,0,0,0,0,0,0,0
0,0,-1985,-91,-75,598,-34,8,130,0,0,0,0,0,0,0,0,0,0,0
0,0,-1994,-90,-85,597,-34,6,109,0,0,0,0,0,0,0,0,0,0,0
0,0,-1994,-88,-73,599,-34,5,124,0,0,0,0,0,0,0,0,0,0,0
0,0,-1988,-88,-88,599,-34,8,118,0,0,0,0,0,0,0,0,0,0,0
0,0,-1986,-86,-83,597,-34,8,125,0,0,0,0,0,0,0,0,0,0,0
0,0,-1992,-89,-69,598,-34,9,132,0,0,0,0,0,0,0,0,0,0,0
0,0,-1987,-88,-78,598,-34,7,127,0,0,0,0,0,0,0,0,0,0,0
0,0,-1987,-89,-83,596,-33,6,119,0,0,0,0,0,0,0,0,0,0,0
0,0,-1983,-87,-83,598,-34,5,125,0,0,0,0,0,0,0,0,0,0,0
0,0,-1980,-84,-72,597,-33,5,142,0,0,0,0,0,0,0,0,0,0,0
0,0,-1988,-89,-79,597,-33,6,123,0,0,0,0,0,0,0,0,0,0,0
0,0,-1989,-76,-78,598,-34,7,137,0,0,0,0,0,0,0,0,0,0,0
0,0,-1991,-81,-82,597,-35,8,125,0,0,0,0,0,0,0,0,0,0,0
0,0,-1985,-86,-95,597,-33,7,114,0,0,0,0,0,0,0,0,0,0,0
0,0,-1988,-89,-76,598,-34,7,127,0,0,0,0,0,0,0,0,0,0,0
0,0,-1987,-85,-69,599,-32,8,143,0,0,0,0,0,0,0,0,0,0,0
0,0,-1989,-79,-74,597,-35,8,137,0,0,0,0,0,0,0,0,0,0,0
0,0,-1985,-82,-76,597,-32,6,137,0,0,0,0,0,0,0,0,0,0,0
0,0,-1991,-87,-81,597,-34,8,121,0,0,0,0,0,0,0,0,0,0,0
0,0,-1995,-83,-65,597,-33,6,136,0,0,0,0,0,0,0,0,0,0,0
0,0,-1997,-93,-81,596,-33,6,107,0,0,0,0,0,0,0,0,0,0,0
0,0,-1994,-86,-74,597,-34,5,123,0,0,0,0,0,0,0,0,0,0,0
0,0,-1995,-82,-78,599,-34,5,124,0,0,0,0,0,0,0,0,0,0,0
0,0,-1995,-85,-79,599,-34,7,122,0,0,0,0,0,0,0,0,0,0,0
0,0,-1989,-85,-83,598,-33,9,126,0,0,0,0,0,0,0,0,0,0,0
0,0,-1991,-79,-80,599,-36,7,129,0,0,0,0,0,0,0,0,0,0,0
0,0,-1993,-75,-81,597,-34,6,129,0,0,0,0,0,0,0,0,0,0,0
0,0,-1989,-87,-79,596,-34,7,123,0,0,0,0,0,0,0,0,0,0,0
0,0,-1984,-85,-81,597,-33,6,129,0,0,0,0,0,0,0,0,0,0,0
0,0,-1987,-86,-64,597,-32,7,144,0,0,0,0,0,0,0,0,0,0,0
0,0,-1988,-89,-77,597,-32,5,125,0,0,0,0,0,0,0,0,0,0,0
0,0,-1998,-90,-81,597,-36,7,108,0,0,0,0,0,0,0,0,0,0,0
0,0,-1989,-85,-75,597,-34,6,129,0,0,0,0,0,0,0,0,0,0,0
0,0,-1983,-86,-78,597,-35,8,132,0,0,0,0,0,0,0,0,0,0,0
0,0,-1984,-81,-91,599,-34,7,125,0,0,0,0,0,0,0,0,0,0,0
0,0,-1984,-88,-72,596,-34,6,133,0,0,0,0,0,0,0,0,0,0,0
0,0,-1992,-84,-81,596,-34,6,120,0,0,0,0,0,0,0,0,0,0,0
0,0,-1994,-86,-76,597,-34,7,123,0,0,0,0,0,0,0,0,0,0,0
0,0,-1993,-89,-69,597,-33,5,127,0,0,0,0,0,0,0,0,0,0,0
0,0,-1989,-81,-78,596,-33,6,130,0,0,0,0,0,0,0,0,0,0,0
0,0,-1984,-86,-74,598,-35,7,135,0,0,0,0,0,0,0,0,0,0,0
0,0,-1989,-81,-85,598,-34,7,125,0,0,0,0,0,0,0,0,0,0,0
0,0,-1994,-83,-88,598,-33,5,114,0,0,0,0,0,0,0,0,0,0,0
0,0,-1990,-79,-86,598,-35,6,123,0,0,0,0,0,0,0,0,0,0,0
0,0,-1990,-85,-68,598,-34,6,136,0,0,0,0,0,0,0,0,0,0,0
0,0,-1990,-85,-75,599,-35,7,130,0,0,0,0,0,0,0,0,0,0,0
0,0,-1986,-84,-62,598,-34,6,147,0,0,0,0,0,0,0,0,0,0,0
0,0,-1987,-84,-76,598,-35,8,133,0,0,0,0,0,0,0,0,0,0,0
0,0,-1981,-87,-84,596,-33,7,127,0,0,0,0,0,0,0,0,0,0,0
0,0,-1983,-81,-83,597,-34,7,132,0,0,0,0,0,0,0,0,0,0,0
0,0,-1987,-87,-76,598,-33,8,132,0,0,0,0,0,0,0,0,0,0,0
0,0,-1988,-89,-71,598,-34,7,132,0,0,0,0,0,0,0,0,0,0,0
0,0,-1982,-83,-80,596,-34,8,134,0,0,0,0,0,0,0,0,0,0,0
0,0,-1987,-80,-87,598,-34,5,124,0,0,0,0,0,0,0,0,0,0,0
0,0,-1992,-75,-92,597,-33,7,121,0,0,0,0,0,0,0,0,0,0,0
0,0,-1986,-86,-78,597,-36,7,127,0,0,0,0,0,0,0,0,0,0,0
0,0,-1991,-85,-81,597,-34,8,123,0,0,0,0,0,0,0,0,0,0,0
0,0,-1992,-84,-74,598,-35,6,128,0,0,0,0,0,0,0,0,0,0,0
0,0,-1985,-81,-77,596,-35,7,134,0,0,0,0,0,0,0,0,0,0,0
0,0,-1993,-84,-79,599,-34,6,124,0,0,0,0,0,0,0,0,0,0,0
0,0,-1990,-89,-81,596,-35,6,116,0,0,0,0,0,0,0,0,0,0,0
0,0,-1992,-85,-70,597,-33,7,133,0,0,0,0,0,0,0,0,0,0,0
0,0,-1991,-89,-86,599,-34,7,115,0,0,0,0,0,0,0,0,0,0,0
0,0,-1989,-82,-84,596,-34,7,123,0,0,0,0,0,0,0,0,0,0,0
0,0,-1989,-84,-80,599,-35,7,127,0,0,0,0,0,0,0,0,0,0,0
0,0,-1984,-88,-86,598,-36,8,121,0,0,0,0,0,0,0,0,0,0,0
0,0,-1989,-85,-82,598,-34,7,124,0,0,0,0,0,0,0,0,0,0,0
0,0,-1992,-88,-77,597,-35,7,121,0,0,0,0,0,0,0,0,0,0,0
0,0,-1980,-83,-76,597,-34,7,140,0,0,0,0,0,0,0,0,0,0,0
0,0,-1992,-88,-80,597,-33,7,120,0,0,0,0,0,0,0,0,0,0,0
0,0,-1987,-80,-72,598,-34,6,140,0,0,0,0,0,0,0,0,0,0,0
0,0,-1987,-84,-68,597,-33,5,139,0,0,0,0,0,0,0,0,0,0,0
0,0,-1993,-92,-78,598,-35,7,116,0,0,0,0,0,0,0,0,0,0,0
0,0,-1986,-88,-79,597,-33,7,127,0,0,0,0,0,0,0,0,0,0,0
0,0,-1993,-92,-88,598,-34,6,106,0,0,0,0,0,0,0,0,0,0,0
0,0,-1991,-91,-84,596,-32,7,114,0,0,0,0,0,0,0,0,0,0,0
0,0,-1991,-83,-75,597,-35,7,129,0,0,0,0,0,0,0,0,0,0,0
0,0,-1987,-91,-76,597,-34,7,125,0,0,0,0,0,0,0,0,0,0,0
0,0,-1993,-88,-81,598,-34,8,119,0,0,0,0,0,0,0,0,0,0,0
0,0,-1990,-83,-72,597,-34,7,134,0,0,0,0,0,0,0,0,0,0,0
0,0,-1986,-85,-79,598,-33,6,130,0,0,0,0,0,0,0,0,0,0,0
0,0,-1988,-87,-78,596,-33,6,125,0,0,0,0,0,0,0,0,0,0,0
0,0,-1988,-88,-73,597,-36,7,128,0,0,0,0,0,0,0,0,0,0,0
0,0,-1990,-85,-78,599,-35,7,127,0,0,0,0,0,0,0,0,0,0,0
0,0,-1988,-85,-83,595,-34,8,122,0,0,0,0,0,0,0,0,0,0,0
0,0,-1991,-90,-70,598,-34,8,130,0,0,0,0,0,0,0,0,0,0,0
0,0,-1988,-90,-71,598,-34,6,130,0,0,0,0,0,0,0,0,0,0,0
0,0,-2000,-83,-76,596,-34,7,119,0,0,0,0,0,0,0,0,0,0,0
0,0,-1991,-86,-73,596,-32,6,129,0,0,0,0,0,0,0,0,0,0,0
0,0,-1993,-80,-79,597,-32,6,128,0,0,0,0,0,0,0,0,0,0,0
0,0,-1996,-88,-80,597,-34,7,115,0,0,0,0,0,0,0,0,0,0,0
0,0,-1981,-87,-92,596,-33,6,118,0,0,0,0,0,0,0,0,0,0,0
0,0,-1987,-82,-79,597,-33,5,130,0,0,0,0,0,0,0,0,0,0,0
0,0,-1989,-83,-83,598,-34,7,125,0,0,0,0,0,0,0,0,0,0,0
0,0,-1980,-78,-80,598,-34,7,142,0,0,0,0,0,0,0,0,0,0,0
0,0,-1992,-83,-77,598,-34,7,128,0,0,0,0,0,0,0,0,0,0,0
0,0,-1993,-85,-74,597,-35,8,127,0,0,0,0,0,0,0,0,0,0,0
0,0,-1985,-90,-83,597,-34,6,120,0,0,0,0,0,0,0,0,0,0,0
0,0,-1988,-92,-78,596,-32,8,123,0,0,0,0,0,0,0,0,0,0,0
0,0,-1987,-79,-72,597,-35,6,139,0,0,0,0,0,0,0,0,0,0,0
0,0,-1988,-86,-73,597,-33,6,132,0,0,0,0,0,0,0,0,0,0,0
0,0,-1990,-94,-74,598,-33,4,120,0,0,0,0,0,0,0,0,0,0,0
0,0,-1993,-91,-83,599,-33,5,113,0,0,0,0,0,0,0,0,0,0,0
0,0,-1993,-89,-77,597,-35,6,118,0,0,0,0,0,0,0,0,0,0,0
0,0,-1986,-83,-79,599,-34,6,132,0,0,0,0,0,0,0,0,0,0,0
0,0,-1986,-91,-74,597,-34,6,127,0,0,0,0,0,0,0,0,0,0,0
0,0,-1984,-87,-70,598,-33,5,138,0,0,0,0,0,0,0,0,0,0,0
0,0,-1986,-86,-83,598,-34,6,124,0,0,0,0,0,0,0,0,0,0,0
0,0,-1990,-77,-80,598,-33,7,134,0,0,0,0,0,0,0,0,0,0,0
0,0,-1987,-81,-77,598,-35,7,134,0,0,0,0,0,0,0,0,0,0,0
0,0,-1990,-86,-82,597,-34,7,121,0,0,0,0,0,0,0,0,0,0,0
0,0,-1991,-91,-73,598,-34,6,124,0,0,0,0,0,0,0,0,0,0,0
0,0,-1991,-84,-77,598,-35,6,126,0,0,0,0,0,0,0,0,0,0,0
0,0,-1988,-83,-68,598,-35,6,139,0,0,0,0,0,0,0,0,0,0,0
0,0,-1993,-84,-80,596,-35,7,120,0,0,0,0,0,0,0,0,0,0,0
0,0,-1988,-91,-79,597,-33,6,121,0,0,0,0,0,0,0,0,0,0,0
0,0,-1999,-83,-64,598,-34,6,133,0,0,0,0,0,0,0,0,0,0,0
0,0,-1984,-91,-71,600,-36,8,135,0,0,0,0,0,0,0,0,0,0,0
0,0,-1987,-92,-81,598,-35,7,119,0,0,0,0,0,0,0,0,0,0,0
0,0,-1994,-89,-74,599,-34,8,125,0,0,0,0,0,0,0,0,0,0,0
0,0,-1994,-86,-77,599,-34,7,124,0,0,0,0,0,0,0,0,0,0,0
0,0,-1989,-92,-81,597,-34,5,115,0,0,0,0,0,0,0,0,0,0,0
0,0,-1988,-84,-69,598,-34,7,139,0,0,0,0,0,0,0,0,0,0,0
0,0,-1988,-90,-84,597,-33,6,117,0,0,0,0,0,0,0,0,0,0,0
0,0,-1989,-78,-76,597,-34,5,134,0,0,0,0,0,0,0,0,0,0,0
0,0,-1988,-79,-77,596,-36,7,132,0,0,0,0,0,0,0,0,0,0,0
0,0,-1989,-78,-74,597,-34,9,140,0,0,0,0,0,0,0,0,0,0,0
0,0,-1990,-79,-93,596,-33,7,117,0,0,0,0,0,0,0,0,0,0,0
0,0,-1986,-90,-79,596,-33,6,123,0,0,0,0,0,0,0,0,0,0,0
0,0,-1993,-79,-82,597,-35,6,123,0,0,0,0,0,0,0,0,0,0,0
0,0,-1983,-82,-78,598,-35,8,137,0,0,0,0,0,0,0,0,0,0,0
0,0,-1992,-83,-78,599,-34,6,127,0,0,0,0,0,0,0,0,0,0,0
0,0,-1990,-87,-84,597,-35,7,117,0,0,0,0,0,0,0,0,0,0,0
0,0,-1993,-90,-74,598,-32,5,123,0,0,0,0,0,0,0,0,0,0,0
0,0,-1989,-85,-82,597,-34,7,123,0,0,0,0,0,0,0,0,0,0,0
0,0,-1990,-92,-75,599,-34,5,122,0,0,0,0,0,0,0,0,0,0,0
0,0,-1996,-85,-79,596,-34,5,116,0,0,0,0,0,0,0,0,0,0,0
0,0,-1986,-85,-72,597,-34,6,135,0,0,0,0,0,0,0,0,0,0,0
0,0,-1990,-85,-77,598,-34,5,126,0,0,0,0,0,0,0,0,0,0,0
0,0,-1990,-82,-71,598,-33,6,137,0,0,0,0,0,0,0,0,0,0,0
0,0,-1991,-90,-77,597,-34,6,120,0,0,0,0,0,0,0,0,0,0,0
0,0,-1989,-87,-70,599,-34,7,135,0,0,0,0,0,0,0,0,0,0,0
0,0,-1988,-88,-68,599,-34,7,137,0,0,0,0,0,0,0,0,0,0,0
0,0,-1986,-97,-75,597,-35,6,119,0,0,0,0,0,0,0,0,0,0,0
0,0,-1989,-86,-79,599,-36,8,126,0,0,0,0,0,0,0,0,0,0,0
0,0,-1989,-82,-66,596,-33,7,142,0,0,0,0,0,0,0,0,0,0,0
0,0,-1987,-85,-76,597,-35,7,130,0,0,0,0,0,0,0,0,0,0,0
0,0,-1988,-88,-78,597,-32,8,128,0,0,0,0,0,0,0,0,0,0,0
0,0,-1981,-80,-73,599,-33,7,148,0,0,0,0,0,0,0,0,0,0,0
0,0,-1987,-88,-74,598,-34,7,131,0,0,0,0,0,0,0,0,0,0,0
0,0,-1984,-87,-77,597,-33,8,133,0,0,0,0,0,0,0,0,0,0,0
0,0,-1983,-89,-70,597,-35,8,137,0,0,0,0,0,0,0,0,0,0,0
0,0,-1989,-81,-72,597,-34,7,137,0,0,0,0,0,0,0,0,0,0,0
0,0,-1985,-94,-77,596,-34,8,123,0,0,0,0,0,0,0,0,0,0,0
0,0,-1994,-83,-87,597,-33,8,117,0,0,0,0,0,0,0,0,0,0,0
0,0,-1991,-87,-88,596,-33,7,113,0,0,0,0,0,0,0,0,0,0,0
0,0,-1988,-95,-75,597,-34,6,120,0,0,0,0,0,0,0,0,0,0,0
0,0,-1986,-87,-78,597,-34,8,129,0,0,0,0,0,0,0,0,0,0,0
0,0,-1988,-76,-75,596,-34,7,139,0,0,0,0,0,0,0,0,0,0,0
0,0,-1994,-81,-73,598,-35,5,129,0,0,0,0,0,0,0,0,0,0,0
0,0,-1990,-84,-71,597,-35,5,131,0,0,0,0,0,0,0,0,0,0,0
0,0,-1990,-87,-74,596,-33,9,130,0,0,0,0,0,0,0,0,0,0,0
0,0,-1988,-86,-67,597,-34,5,136,0,0,0,0,0,0,0,0,0,0,0
0,0,-1988,-88,-79,598,-33,8,127,0,0,0,0,0,0,0,0,0,0,0
0,0,-1987,-88,-79,598,-35,7,125,0,0,0,0,0,0,0,0,0,0,0
0,0,-1990,-89,-80,598,-34,6,120,0,0,0,0,0,0,0,0,0,0,0
0,0,-1990,-86,-77,597,-32,7,128,0,0,0,0,0,0,0,0,0,0,0
0,0,-1989,-83,-80,596,-34,5,124,0,0,0,0,0,0,0,0,0,0,0
0,0,-1996,-92,-88,597,-35,6,101,0,0,0,0,0,0,0,0,0,0,0
0,0,-1993,-82,-81,599,-36,6,122,0,0,0,0,0,0,0,0,0,0,0
0,0,-1989,-80,-82,599,-34,8,131,0,0,0,0,0,0,0,0,0,0,0
0,0,-1996,-81,-73,598,-36,7,128,0,0,0,0,0,0,0,0,0,0,0
0,0,-1987,-85,-73,598,-36,7,133,0,0,0,0,0,0,0,0,0,0,0
0,0,-1986,-91,-78,596,-35,6,121,0,0,0,0,0,0,0,0,0,0,0
0,0,-1988,-86,-80,597,-33,5,124,0,0,0,0,0,0,0,0,0,0,0
0,0,-1982,-84,-69,597,-33,6,144,0,0,0,0,0,0,0,0,0,0,0
0,0,-1985,-80,-81,597,-35,6,131,0,0,0,0,0,0,0,0,0,0,0
0,0,-1988,-93,-73,596,-34,7,124,0,0,0,0,0,0,0,0,0,0,0
0,0,-1995,-83,-78,598,-34,6,123,0,0,0,0,0,0,0,0,0,0,0
0,0,-1988,-82,-68,598,-33,6,142,0,0,0,0,0,0,0,0,0,0,0
0,0,-1990,-87,-73,598,-33,7,131,0,0,0,0,0,0,0,0,0,0,0
0,0,-1990,-82,-81,596,-34,8,126,0,0,0,0,0,0,0,0,0,0,0
0,0,-1994,-82,-70,600,-36,6,133,0,0,0,0,0,0,0,0,0,0,0
0,0,-1982,-87,-79,599,-35,6,131,0,0,0,0,0,0,0,0,0,0,0
0,0,-1988,-90,-83,598,-35,6,117,0,0,0,0,0,0,0,0,0,0,0
0,0,-1987,-91,-70,598,-33,6,132,0,0,0,0,0,0,0,0,0,0,0
0,0,-1996,-80,-74,596,-35,6,126,0,0,0,0,0,0,0,0,0,0,0
0,0,-1991,-85,-70,598,-35,7,133,0,0,0,0,0,0,0,0,0,0,0
0,0,-1991,-87,-79,599,-33,7,125,0,0,0,0,0,0,0,0,0,0,0
0,0,-1986,-80,-80,598,-34,6,133,0,0,0,0,0,0,0,0,0,0,0
0,0,-1985,-87,-78,597,-34,6,128,0,0,0,0,0,0,0,0,0,0,0
0,0,-1983,-87,-75,596,-34,7,133,0,0,0,0,0,0,0,0,0,0,0
0,0,-1983,-84,-66,597,-33,6,146,0,0,0,0,0,0,0,0,0,0,0
0,0,-1981,-82,-58,597,-34,7,158,0,0,0,0,0,0,0,0,0,0,0
0,0,-1989,-88,-80,597,-34,7,122,0,0,0,0,0,0,0,0,0,0,0
0,0,-1986,-85,-81,596,-35,6,124,0,0,0,0,0,0,0,0,0,0,0
0,0,-1989,-85,-84,599,-35,7,122,0,0,0,0,0,0,0,0,0,0,0
0,0,-1983,-93,-72,597,-33,8,133,0,0,0,0,0,0,0,0,0,0,0
0,0,-1990,-88,-80,597,-34,6,120,0,0,0,0,0,0,0,0,0,0,0
0,0,-1990,-87,-71,598,-35,6,130,0,0,0,0,0,0,0,0,0,0,0
0,0,-1985,-88,-79,599,-35,5,126,0,0,0,0,0,0,0,0,0,0,0
0,0,-1986,-86,-74,600,-35,5,133,0,0,0,0,0,0,0,0,0,0,0
0,0,-1986,-89,-75,599,-35,7,130,0,0,0,0,0,0,0,0,0,0,0
0,0,-1982,-88,-73,600,-35,7,138,0,0,0,0,0,0,0,0,0,0,0
0,0,-1992,-86,-79,596,-35,6,119,0,0,0,0,0,0,0,0,0,0,0
0,0,-1996,-89,-76,597,-34,7,118,0,0,0,0,0,0,0,0,0,0,0
0,0,-1991,-88,-84,597,-32,6,117,0,0,0,0,0,0,0,0,0,0,0
0,0,-1989,-91,-81,597,-33,7,119,0,0,0,0,0,0,0,0,0,0,0
0,0,-1989,-97,-78,598,-34,8,117,0,0,0,0,0,0,0,0,0,0,0
0,0,-1993,-98,-75,598,-34,8,115,0,0,0,0,0,0,0,0,0,0,0
0,0,-1989,-88,-78,598,-34,7,125,0,0,0,0,0,0,0,0,0,0,0
0,0,-1989,-81,-85,597,-34,8,125,0,0,0,0,0,0,0,0,0,0,0
0,0,-1990,-86,-84,597,-35,7,118,0,0,0,0,0,0,0,0,0,0,0
0,0,-1985,-80,-75,598,-34,9,142,0,0,0,0,0,0,0,0,0,0,0
0,0,-1986,-79,-86,597,-35,7,127,0,0,0,0,0,0,0,0,0,0,0
0,0,-1994,-84,-82,597,-34,7,119,0,0,0,0,0,0,0,0,0,0,0
0,0,-1995,-87,-77,596,-35,5,116,0,0,0,0,0,0,0,0,0,0,0
0,0,-1980,-77,-80,597,-35,6,140,0,0,0,0,0,0,0,0,0,0,0
0,0,-1993,-79,-72,597,-35,6,133,0,0,0,0,0,0,0,0,0,0,0
0,0,-1991,-89,-77,598,-33,7,124,0,0,0,0,0,0,0,0,0,0,0
0,0,-1990,-86,-76,598,-34,6,127,0,0,0,0,0,0,0,0,0,0,0
0,0,-1995,-81,-79,599,-34,5,124,0,0,0,0,0,0,0,0,0,0,0
0,0,-1986,-84,-69,595,-34,7,138,0,0,0,0,0,0,0,0,0,0,0
0,0,-1991,-90,-85,599,-36,8,114,0,0,0,0,0,0,0,0,0,0,0
0,0,-1991,-81,-81,598,-35,5,124,0,0,0,0,0,0,0,0,0,0,0
0,0,-1986,-88,-78,599,-34,4,126,0,0,0,0,0,0,0,0,0,0,0
0,0,-1988,-86,-71,599,-35,6,134,0,0,0,0,0,0,0,0,0,0,0
0,0,-1988,-83,-71,598,-35,4,134,0,0,0,0,0,0,0,0,0,0,0
0,0,-1992,-91,-79,598,-35,7,117,0,0,0,0,0,0,0,0,0,0,0
0,0,-1988,-84,-72,599,-33,7,138,0,0,0,0,0,0,0,0,0,0,0
0,0,-1985,-79,-84,597,-35,7,130,0,0,0,0,0,0,0,0,0,0,0
0,0,-1992,-83,-66,596,-36,7,135,0,0,0,0,0,0,0,0,0,0,0
0,0,-1992,-88,-77,597,-34,7,122,0,0,0,0,0,0,0,0,0,0,0
0,0,-1991,-84,-81,596,-35,6,120,0,0,0,0,0,0,0,0,0,0,0
0,0,-1985,-87,-83,598,-33,7,126,0,0,0,0,0,0,0,0,0,0,0
0,0,-1989,-96,-78,600,-33,6,119,0,0,0,0,0,0,0,0,0,0,0
0,0,-1996,-81,-77,598,-35,7,125,0,0,0,0,0,0,0,0,0,0,0
0,0,-1980,-81,-74,599,-33,7,147,0,0,0,0,0,0,0,0,0,0,0
0,0,-1983,-85,-73,597,-34,7,138,0,0,0,0,0,0,0,0,0,0,0
0,0,-1987,-83,-69,596,-35,6,137,0,0,0,0,0,0,0,0,0,0,0
0,0,-1994,-88,-83,598,-35,8,115,0,0,0,0,0,0,0,0,0,0,0
0,0,-1990,-95,-85,598,-35,7,109,0,0,0,0,0,0,0,0,0,0,0
0,0,-1982,-86,-91,597,-32,8,123,0,0,0,0,0,0,0,0,0,0,0
0,0,-1985,-89,-77,597,-34,7,128,0,0,0,0,0,0,0,0,0,0,0
0,0,-1988,-88,-74,597,-34,7,129,0,0,0,0,0,0,0,0,0,0,0
0,0,-1989,-85,-79,596,-34,5,123,0,0,0,0,0,0,0,0,0,0,0
0,0,-1993,-82,-76,597,-35,7,127,0,0,0,0,0,0,0,0,0,0,0
0,0,-1986,-89,-86,597,-34,8,119,0,0,0,0,0,0,0,0,0,0,0
0,0,-1981,-85,-85,596,-33,6,127,0,0,0,0,0,0,0,0,0,0,0
0,0,-1985,-87,-84,598,-34,9,126,0,0,0,0,0,0,0,0,0,0,0
0,0,-1983,-87,-81,597,-36,7,126,0,0,0,0,0,0,0,0,0,0,0
0,0,-1992,-90,-65,597,-33,7,133,0,0,0,0,0,0,0,0,0,0,0
0,0,-1987,-82,-67,597,-33,7,144,0,0,0,0,0,0,0,0,0,0,0
0,0,-1989,-87,-78,597,-34,6,124,0,0,0,0,0,0,0,0,0,0,0
0,0,-1993,-84,-68,597,-35,6,132,0,0,0,0,0,0,0,0,0,0,0
0,0,-1986,-82,-79,597,-34,7,132,0,0,0,0,0,0,0,0,0,0,0
0,0,-1989,-91,-76,599,-34,5,123,0,0,0,0,0,0,0,0,0,0,0
0,0,-1989,-87,-81,598,-34,7,123,0,0,0,0,0,0,0,0,0,0,0
0,0,-1991,-87,-71,597,-35,6,128,0,0,0,0,0,0,0,0,0,0,0
0,0,-1988,-85,-87,597,-35,6,117,0,0,0,0,0,0,0,0,0,0,0
0,0,-1988,-92,-85,595,-35,8,112,0,0,0,0,0,0,0,0,0,0,0
0,0,-1988,-83,-83,599,-33,7,128,0,0,0,0,0,0,0,0,0,0,0
0,0,-1984,-86,-74,598,-34,8,137,0,0,0,0,0,0,0,0,0,0,0
0,0,-1991,-86,-78,597,-34,7,124,0,0,0,0,0,0,0,0,0,0,0
0,0,-1991,-99,-73,597,-34,8,117,0,0,0,0,0,0,0,0,0,0,0
0,0,-1980,-87,-73,597,-34,6,138,0,0,0,0,0,0,0,0,0,0,0
0,0,-1985,-85,-81,598,-34,7,129,0,0,0,0,0,0,0,0,0,0,0
0,0,-1991,-74,-78,596,-37,6,131,0,0,0,0,0,0,0,0,0,0,0
0,0,-1986,-88,-66,596,-35,8,138,0,0,0,0,0,0,0,0,0,0,0
0,0,-1986,-89,-84,598,-34,7,121,0,0,0,0,0,0,0,0,0,0,0
0,0,-1989,-94,-69,598,-34,6,127,0,0,0,0,0,0,0,0,0,0,0
0,0,-1988,-90,-71,598,-35,6,129,0,0,0,0,0,0,0,0,0,0,0
0,0,-1987,-83,-77,597,-33,6,132,0,0,0,0,0,0,0,0,0,0,0
0,0,-1992,-83,-84,597,-36,5,116,0,0,0,0,0,0,0,0,0,0,0
0,0,-1988,-80,-82,597,-33,6,129,0,0,0,0,0,0,0,0,0,0,0
0,0,-1985,-80,-81,597,-34,5,131,0,0,0,0,0,0,0,0,0,0,0
0,0,-1994,-89,-75,598,-34,7,122,0,0,0,0,0,0,0,0,0,0,0
0,0,-1993,-89,-83,596,-34,6,112,0,0,0,0,0,0,0,0,0,0,0
0,0,-1989,-78,-79,597,-35,7,132,0,0,0,0,0,0,0,0,0,0,0
0,0,-1984,-89,-81,597,-33,7,126,0,0,0,0,0,0,0,0,0,0,0
0,0,-1991,-87,-78,600,-34,6,125,0,0,0,0,0,0,0,0,0,0,0
0,0,-1986,-92,-74,597,-34,5,125,0,0,0,0,0,0,0,0,0,0,0
0,0,-1985,-83,-79,598,-35,7,132,0,0,0,0,0,0,0,0,0,0,0
0,0,-1989,-81,-78,597,-33,7,132,0,0,0,0,0,0,0,0,0,0,0
0,0,-1986,-88,-76,598,-34,8,131,0,0,0,0,0,0,0,0,0,0,0
0,0,-1989,-84,-72,599,-33,5,135,0,0,0,0,0,0,0,0,0,0,0
0,0,-1988,-82,-72,597,-33,5,136,0,0,0,0,0,0,0,0,0,0,0
0,0,-1990,-78,-72,597,-35,7,138,0,0,0,0,0,0,0,0,0,0,0
0,0,-1982,-83,-78,599,-35,6,136,0,0,0,0,0,0,0,0,0,0,0
0,0,-1978,-89,-74,597,-33,6,138,0,0,0,0,0,0,0,0,0,0,0
0,0,-1987,-86,-67,597,-34,6,138,0,0,0,0,0,0,0,0,0,0,0
0,0,-1986,-81,-74,597,-34,6,137,0,0,0,0,0,0,0,0,0,0,0
0,0,-1991,-89,-68,598,-33,6,132,0,0,0,0,0,0,0,0,0,0,0
0,0,-1987,-82,-79,597,-32,6,132,0,0,0,0,0,0,0,0,0,0,0
0,0,-1983,-89,-81,597,-34,7,126,0,0,0,0,0,0,0,0,0,0,0
0,0,-1988,-84,-78,599,-33,7,132,0,0,0,0,0,0,0,0,0,0,0
0,0,-1996,-82,-74,596,-35,6,124,0,0,0,0,0,0,0,0,0,0,0
0,0,-1994,-87,-83,596,-35,7,113,0,0,0,0,0,0,0,0,0,0,0
0,0,-1994,-88,-86,597,-34,7,111,0,0,0,0,0,0,0,0,0,0,0
0,0,-1989,-88,-77,597,-34,6,124,0,0,0,0,0,0,0,0,0,0,0
0,0,-1988,-96,-79,597,-34,7,116,0,0,0,0,0,0,0,0,0,0,0
0,0,-1986,-88,-74,599,-34,7,133,0,0,0,0,0,0,0,0,0,0,0
0,0,-1981,-83,-75,599,-34,7,142,0,0,0,0,0,0,0,0,0,0,0
0,0,-1993,-87,-79,597,-32,8,123,0,0,0,0,0,0,0,0,0,0,0
0,0,-1995,-89,-82,598,-36,8,113,0,0,0,0,0,0,0,0,0,0,0
0,0,-1986,-83,-79,598,-34,7,132,0,0,0,0,0,0,0,0,0,0,0
0,0,-1985,-87,-68,598,-34,6,139,0,0,0,0,0,0,0,0,0,0,0
0,0,-1987,-94,-68,596,-35,6,127,0,0,0,0,0,0,0,0,0,0,0
0,0,-1984,-85,-72,598,-34,7,139,0,0,0,0,0,0,0,0,0,0,0
0,0,-1989,-83,-75,597,-34,6,131,0,0,0,0,0,0,0,0,0,0,0
0,0,-1990,-83,-79,596,-35,6,124,0,0,0,0,0,0,0,0,0,0,0
0,0,-1985,-86,-84,598,-34,7,125,0,0,0,0,0,0,0,0,0,0,0
0,0,-1983,-96,-71,597,-32,7,131,0,0,0,0,0,0,0,0,0,0,0
0,0,-1982,-93,-70,597,-34,5,132,0,0,0,0,0,0,0,0,0,0,0
0,0,-1989,-86,-76,597,-32,7,130,0,0,0,0,0,0,0,0,0,0,0
0,0,-1988,-81,-75,598,-34,5,134,0,0,0,0,0,0,0,0,0,0,0
0,0,-1988,-87,-75,597,-36,6,126,0,0,0,0,0,0,0,0,0,0,0
0,0,-1985,-89,-74,597,-35,8,131,0,0,0,0,0,0,0,0,0,0,0
0,0,-1981,-86,-73,598,-34,8,141,0,0,0,0,0,0,0,0,0,0,0
0,0,-1991,-80,-73,597,-34,7,135,0,0,0,0,0,0,0,0,0,0,0
0,0,-1992,-92,-75,599,-34,6,121,0,0,0,0,0,0,0,0,0,0,0
0,0,-1987,-89,-75,598,-37,6,125,0,0,0,0,0,0,0,0,0,0,0
0,0,-1992,-86,-78,598,-35,8,124,0,0,0,0,0,0,0,0,0,0,0
0,0,-1985,-82,-74,597,-34,7,138,0,0,0,0,0,0,0,0,0,0,0
0,0,-1988,-78,-82,598,-33,6,132,0,0,0,0,0,0,0,0,0,0,0
0,0,-1989,-95,-87,598,-33,7,110,0,0,0,0,0,0,0,0,0,0,0
0,0,-1988,-81,-90,598,-33,6,121,0,0,0,0,0,0,0,0,0,0,0
0,0,-1990,-88,-85,597,-35,4,112,0,0,0,0,0,0,0,0,0,0,0
0,0,-1990,-86,-76,597,-34,6,126,0,0,0,0,0,0,0,0,0,0,0
0,0,-1991,-87,-73,598,-33,4,127,0,0,0,0,0,0,0,0,0,0,0
0,0,-1988,-89,-73,596,-34,4,125,0,0,0,0,0,0,0,0,0,0,0
0,0,-1986,-78,-73,598,-32,6,144,0,0,0,0,0,0,0,0,0,0,0
0,0,-1992,-86,-83,597,-34,7,118,0,0,0,0,0,0,0,0,0,0,0
0,0,-1987,-91,-72,595,-34,8,128,0,0,0,0,0,0,0,0,0,0,0
0,0,-1996,-88,-72,598,-35,6,122,0,0,0,0,0,0,0,0,0,0,0
0,0,-1992,-85,-75,597,-35,7,126,0,0,0,0,0,0,0,0,0,0,0
0,0,-1996,-84,-66,598,-33,5,133,0,0,0,0,0,0,0,0,0,0,0
0,0,-1991,-86,-62,597,-35,7,139,0,0,0,0,0,0,0,0,0,0,0
0,0,-1989,-83,-71,597,-35,7,135,0,0,0,0,0,0,0,0,0,0,0
0,0,-1989,-90,-83,598,-34,5,116,0,0,0,0,0,0,0,0,0,0,0
0,0,-1987,-79,-73,598,-33,5,140,0,0,0,0,0,0,0,0,0,0,0
0,0,-1991,-86,-76,599,-34,6,127,0,0,0,0,0,0,0,0,0,0,0
0,0,-1991,-87,-80,598,-34,7,122,0,0,0,0,0,0,0,0,0,0,0
0,0,-1984,-83,-78,597,-33,7,135,0,0,0,0,0,0,0,0,0,0,0
0,0,-1989,-89,-83,597,-34,6,117,0,0,0,0,0,0,0,0,0,0,0
0,0,-1988,-87,-71,596,-35,8,132,0,0,0,0,0,0,0,0,0,0,0
0,0,-1996,-82,-70,597,-34,6,130,0,0,0,0,0,0,0,0,0,0,0
0,0,-1992,-93,-82,596,-33,7,112,0,0,0,0,0,0,0,0,0,0,0
0,0,-1988,-91,-70,597,-34,7,130,0,0,0,0,0,0,0,0,0,0,0
0,0,-1995,-90,-76,597,-35,6,116,0,0,0,0,0,0,0,0,0,0,0
0,0,-1991,-86,-79,599,-34,7,125,0,0,0,0,0,0,0,0,0,0,0
0,0,-1992,-90,-89,597,-33,7,109,0,0,0,0,0,0,0,0,0,0,0
0,0,-1991,-90,-81,598,-35,7,117,0,0,0,0,0,0,0,0,0,0,0
0,0,-1986,-90,-76,597,-35,6,125,0,0,0,0,0,0,0,0,0,0,0
0,0,-1991,-89,-87,596,-33,7,112,0,0,0,0,0,0,0,0,0,0,0
0,0,-1981,-82,-82,596,-33,6,133,0,0,0,0,0,0,0,0,0,0,0
0,0,-1989,-89,-65,597,-35,7,135,0,0,0,0,0,0,0,0,0,0,0
0,0,-1994,-85,-82,598,-35,7,118,0,0,0,0,0,0,0,0,0,0,0
0,0,-1988,-86,-60,598,-32,6,147,0,0,0,0,0,0,0,0,0,0,0
0,0,-1988,-89,-71,599,-35,9,134,0,0,0,0,0,0,0,0,0,0,0
0,0,-1986,-85,-79,599,-34,7,131,0,0,0,0,0,0,0,0,0,0,0
0,0,-1994,-87,-71,599,-33,7,130,0,0,0,0,0,0,0,0,0,0,0
0,0,-1989,-93,-73,599,-34,6,125,0,0,0,0,0,0,0,0,0,0,0
0,0,-1987,-89,-75,598,-34,5,127,0,0,0,0,0,0,0,0,0,0,0
0,0,-1992,-85,-81,597,-33,6,121,0,0,0,0,0,0,0,0,0,0,0
0,0,-1989,-88,-83,597,-34,8,120,0,0,0,0,0,0,0,0,0,0,0
0,0,-1982,-82,-76,598,-33,6,140,0,0,0,0,0,0,0,0,0,0,0
0,0,-1994,-81,-72,598,-33,7,134,0,0,0,0,0,0,0,0,0,0,0
0,0,-1986,-84,-65,597,-35,7,143,0,0,0,0,0,0,0,0,0,0,0
0,0,-1985,-85,-70,597,-35,6,137,0,0,0,0,0,0,0,0,0,0,0
0,0,-1986,-89,-81,598,-34,6,123,0,0,0,0,0,0,0,0,0,0,0
0,0,-1987,-90,-68,599,-35,6,134,0,0,0,0,0,0,0,0,0,0,0
0,0,-1993,-79,-74,598,-35,8,134,0,0,0,0,0,0,0,0,0,0,0
0,0,-1984,-89,-74,598,-34,7,133,0,0,0,0,0,0,0,0,0,0,0
0,0,-1986,-89,-73,596,-34,7,130,0,0,0,0,0,0,0,0,0,0,0
0,0,-1994,-88,-66,597,-36,5,127,0,0,0,0,0,0,0,0,0,0,0
0,0,-2001,-85,-75,597,-34,7,118,0,0,0,0,0,0,0,0,0,0,0
0,0,-1986,-90,-72,600,-33,7,135,0,0,0,0,0,0,0,0,0,0,0
0,0,-1986,-88,-73,599,-34,7,134,0,0,0,0,0,0,0,0,0,0,0
0,0,-1984,-90,-80,599,-34,7,127,0,0,0,0,0,0,0,0,0,0,0
0,0,-1984,-81,-68,597,-33,6,146,0,0,0,0,0,0,0,0,0,0,0
0,0,-1993,-84,-73,599,-33,8,133,0,0,0,0,0,0,0,0,0,0,0
0,0,-1992,-83,-87,597,-32,6,118,0,0,0,0,0,0,0,0,0,0,0
0,0,-1994,-84,-76,595,-35,7,122,0,0,0,0,0,0,0,0,0,0,0
0,0,-1989,-89,-84,598,-34,8,119,0,0,0,0,0,0,0,0,0,0,0
0,0,-1989,-95,-70,597,-34,5,123,0,0,0,0,0,0,0,0,0,0,0
0,0,-1992,-94,-79,598,-35,6,113,0,0,0,0,0,0,0,0,0,0,0
0,0,-1992,-87,-73,597,-35,6,125,0,0,0,0,0,0,0,0,0,0,0
0,0,-1987,-87,-79,597,-34,5,124,0,0,0,0,0,0,0,0,0,0,0
0,0,-1987,-92,-86,597,-34,5,112,0,0,0,0,0,0,0,0,0,0,0
0,0,-1982,-86,-67,598,-35,6,143,0,0,0,0,0,0,0,0,0,0,0
0,0,-1981,-83,-78,598,-34,6,137,0,0,0,0,0,0,0,0,0,0,0
0,0,-1988,-91,-83,596,-34,7,116,0,0,0,0,0,0,0,0,0,0,0
0,0,-1985,-78,-86,597,-33,7,131,0,0,0,0,0,0,0,0,0,0,0
0,0,-1990,-81,-71,597,-35,5,134,0,0,0,0,0,0,0,0,0,0,0
0,0,-1981,-83,-85,596,-34,5,127,0,0,0,0,0,0,0,0,0,0,0
0,0,-1988,-89,-86,600,-34,6,118,0,0,0,0,0,0,0,0,0,0,0
0,0,-1996,-87,-70,597,-34,6,125,0,0,0,0,0,0,0,0,0,0,0
0,0,-1991,-87,-78,597,-35,5,120,0,0,0,0,0,0,0,0,0,0,0
0,0,-1990,-82,-72,599,-31,8,141,0,0,0,0,0,0,0,0,0,0,0
0,0,-1991,-86,-64,599,-34,7,140,0,0,0,0,0,0,0,0,0,0,0
0,0,-1987,-83,-85,598,-35,6,123,0,0,0,0,0,0,0,0,0,0,0
0,0,-1987,-80,-74,597,-34,8,139,0,0,0,0,0,0,0,0,0,0,0
0,0,-1986,-89,-82,598,-33,8,125,0,0,0,0,0,0,0,0,0,0,0
0,0,-1989,-90,-87,597,-35,7,112,0,0,0,0,0,0,0,0,0,0,0
0,0,-1985,-87,-79,597,-33,7,129,0,0,0,0,0,0,0,0,0,0,0
0,0,-1981,-83,-83,596,-34,7,131,0,0,0,0,0,0,0,0,0,0,0
0,0,-1994,-86,-84,598,-34,8,117,0,0,0,0,0,0,0,0,0,0,0
0,0,-1984,-85,-73,598,-35,7,137,0,0,0,0,0,0,0,0,0,0,0
0,0,-1990,-82,-75,597,-34,7,132,0,0,0,0,0,0,0,0,0,0,0
0,0,-1991,-86,-72,596,-33,7,130,0,0,0,0,0,0,0,0,0,0,0
0,0,-1983,-82,-72,597,-33,7,143,0,0,0,0,0,0,0,0,0,0,0
0,0,-1983,-82,-80,598,-35,7,134,0,0,0,0,0,0,0,0,0,0,0
0,0,-1993,-80,-67,598,-35,8,140,0,0,0,0,0,0,0,0,0,0,0
0,0,-1990,-75,-80,597,-34,7,134,0,0,0,0,0,0,0,0,0,0,0
0,0,-1988,-90,-70,598,-33,7,133,0,0,0,0,0,0,0,0,0,0,0
0,0,-1989,-85,-72,597,-35,5,130,0,0,0,0,0,0,0,0,0,0,0
0,0,-1989,-81,-70,596,-34,5,136,0,0,0,0,0,0,0,0,0,0,0
0,0,-1976,-88,-73,598,-33,6,143,0,0,0,0,0,0,0,0,0,0,0
0,0,-1983,-82,-68,596,-34,9,147,0,0,0,0,0,0,0,0,0,0,0
0,0,-1985,-84,-70,597,-35,5,137,0,0,0,0,0,0,0,0,0,0,0
0,0,-1985,-83,-75,599,-34,6,137,0,0,0,0,0,0,0,0,0,0,0
0,0,-1989,-89,-84,598,-34,7,118,0,0,0,0,0,0,0,0,0,0,0
0,0,-1985,-83,-78,598,-33,7,135,0,0,0,0,0,0,0,0,0,0,0
0,0,-1989,-91,-82,597,-35,7,116,0,0,0,0,0,0,0,0,0,0,0
0,0,-1986,-88,-73,598,-34,7,133,0,0,0,0,0,0,0,0,0,0,0
0,0,-1990,-86,-81,598,-33,5,122,0,0,0,0,0,0,0,0,0,0,0
0,0,-1993,-84,-83,598,-34,9,122,0,0,0,0,0,0,0,0,0,0,0
0,0,-1991,-85,-78,598,-34,8,127,0,0,0,0,0,0,0,0,0,0,0
0,0,-1983,-86,-66,599,-34,5,144,0,0,0,0,0,0,0,0,0,0,0
0,0,-1985,-78,-68,598,-35,5,146,0,0,0,0,0,0,0,0,0,0,0
0,0,-1996,-88,-74,598,-33,4,120,0,0,0,0,0,0,0,0,0,0,0
0,0,-1993,-82,-72,597,-34,7,132,0,0,0,0,0,0,0,0,0,0,0
0,0,-1994,-93,-74,597,-34,7,118,0,0,0,0,0,0,0,0,0,0,0
0,0,-1987,-79,-77,597,-35,7,135,0,0,0,0,0,0,0,0,0,0,0
0,0,-1986,-92,-83,597,-35,6,116,0,0,0,0,0,0,0,0,0,0,0
0,0,-1991,-91,-76,598,-34,5,120,0,0,0,0,0,0,0,0,0,0,0
0,0,-1982,-83,-81,598,-34,6,133,0,0,0,0,0,0,0,0,0,0,0
0,0,-1992,-83,-85,598,-34,8,121,0,0,0,0,0,0,0,0,0,0,0
0,0,-1989,-85,-75,598,-34,6,130,0,0,0,0,0,0,0,0,0,0,0
0,0,-1987,-82,-70,598,-33,6,141,0,0,0,0,0,0,0,0,0,0,0
0,0,-1987,-82,-80,599,-33,6,132,0,0,0,0,0,0,0,0,0,0,0
0,0,-2000,-90,-80,599,-36,8,110,0,0,0,0,0,0,0,0,0,0,0
0,0,-1981,-86,-85,597,-33,7,128,0,0,0,0,0,0,0,0,0,0,0
0,0,-1987,-89,-82,598,-32,6,123,0,0,0,0,0,0,0,0,0,0,0
0,0,-1985,-86,-81,598,-34,6,127,0,0,0,0,0,0,0,0,0,0,0
0,0,-1984,-93,-73,597,-34,8,130,0,0,0,0,0,0,0,0,0,0,0
0,0,-1989,-93,-74,596,-35,6,120,0,0,0,0,0,0,0,0,0,0,0
0,0,-1989,-86,-69,598,-36,6,133,0,0,0,0,0,0,0,0,0,0,0
0,0,-1990,-88,-75,599,-36,7,126,0,0,0,0,0,0,0,0,0,0,0
0,0,-1983,-81,-68,597,-35,5,144,0,0,0,0,0,0,0,0,0,0,0
0,0,-1984,-86,-74,599,-34,8,138,0,0,0,0,0,0,0,0,0,0,0
0,0,-1989,-86,-91,598,-34,8,115,0,0,0,0,0,0,0,0,0,0,0
0,0,-1987,-75,-83,597,-34,6,133,0,0,0,0,0,0,0,0,0,0,0
0,0,-1989,-86,-91,597,-34,5,111,0,0,0,0,0,0,0,0,0,0,0
0,0,-1983,-86,-83,597,-35,8,127,0,0,0,0,0,0,0,0,0,0,0
0,0,-1986,-83,-77,597,-36,5,129,0,0,0,0,0,0,0,0,0,0,0
0,0,-1985,-87,-77,598,-34,5,129,0,0,0,0,0,0,0,0,0,0,0
0,0,-1991,-80,-83,597,-33,6,125,0,0,0,0,0,0,0,0,0,0,0
0,0,-1994,-80,-73,600,-33,6,135,0,0,0,0,0,0,0,0,0,0,0
0,0,-1993,-88,-71,597,-33,8,129,0,0,0,0,0,0,0,0,0,0,0
0,0,-1989,-85,-70,597,-34,5,133,0,0,0,0,0,0,0,0,0,0,0
0,0,-1980,-89,-72,596,-36,5,133,0,0,0,0,0,0,0,0,0,0,0
0,0,-1988,-87,-75,598,-34,7,130,0,0,0,0,0,0,0,0,0,0,0
0,0,-1986,-89,-80,598,-32,6,126,0,0,0,0,0,0,0,0,0,0,0
0,0,-1991,-89,-80,597,-36,6,116,0,0,0,0,0,0,0,0,0,0,0
0,0,-1989,-81,-69,597,-34,6,139,0,0,0,0,0,0,0,0,0,0,0
0,0,-1988,-85,-74,597,-34,7,132,0,0,0,0,0,0,0,0,0,0,0
0,0,-1992,-80,-80,598,-34,7,128,0,0,0,0,0,0,0,0,0,0,0
0,0,-1998,-84,-71,598,-35,5,124,0,0,0,0,0,0,0,0,0,0,0
0,0,-1992,-93,-77,597,-35,6,115,0,0,0,0,0,0,0,0,0,0,0
0,0,-1989,-83,-80,598,-34,5,126,0,0,0,0,0,0,0,0,0,0,0
0,0,-1977,-85,-83,596,-33,6,133,0,0,0,0,0,0,0,0,0,0,0
0,0,-1983,-85,-72,598,-36,6,137,0,0,0,0,0,0,0,0,0,0,0
0,0,-1990,-87,-76,598,-34,8,128,0,0,0,0,0,0,0,0,0,0,0
0,0,-1986,-88,-76,599,-34,6,130,0,0,0,0,0,0,0,0,0,0,0
0,0,-1985,-88,-82,596,-33,6,123,0,0,0,0,0,0,0,0,0,0,0
0,0,-1995,-92,-73,596,-34,6,117,0,0,0,0,0,0,0,0,0,0,0
0,0,-1988,-89,-79,597,-34,7,123,0,0,0,0,0,0,0,0,0,0,0
0,0,-1990,-89,-73,598,-35,7,127,0,0,0,0,0,0,0,0,0,0,0
0,0,-1988,-87,-80,597,-34,6,123,0,0,0,0,0,0,0,0,0,0,0
0,0,-1997,-88,-75,598,-34,9,122,0,0,0,0,0,0,0,0,0,0,0
0,0,-1991,-85,-76,600,-35,7,129,0,0,0,0,0,0,0,0,0,0,0
0,0,-1993,-89,-82,596,-35,7,113,0,0,0,0,0,0,0,0,0,0,0
0,0,-1982,-84,-76,597,-33,6,137,0,0,0,0,0,0,0,0,0,0,0
0,0,-1984,-88,-77,598,-35,6,129,0,0,0,0,0,0,0,0,0,0,0
0,0,-1995,-84,-78,597,-34,5,120,0,0,0,0,0,0,0,0,0,0,0
0,0,-1992,-90,-78,597,-33,8,121,0,0,0,0,0,0,0,0,0,0,0
0,0,-1987,-87,-70,598,-33,6,136,0,0,0,0,0,0,0,0,0,0,0
0,0,-1990,-87,-80,597,-35,6,120,0,0,0,0,0,0,0,0,0,0,0
0,0,-1980,-92,-81,596,-34,7,125,0,0,0,0,0,0,0,0,0,0,0
0,0,-1983,-90,-82,598,-34,8,126,0,0,0,0,0,0,0,0,0,0,0
0,0,-1992,-87,-74,599,-35,7,127,0,0,0,0,0,0,0,0,0,0,0
0,0,-1989,-84,-78,597,-34,6,127,0,0,0,0,0,0,0,0,0,0,0
0,0,-1988,-84,-71,598,-33,6,137,0,0,0,0,0,0,0,0,0,0,0
0,0,-1993,-82,-79,597,-34,7,125,0,0,0,0,0,0,0,0,0,0,0
0,0,-1989,-85,-75,598,-35,6,129,0,0,0,0,0,0,0,0,0,0,0
0,0,-1992,-84,-81,598,-34,6,122,0,0,0,0,0,0,0,0,0,0,0
0,0,-1988,-85,-72,599,-33,6,136,0,0,0,0,0,0,0,0,0,0,0
0,0,-1991,-80,-68,598,-34,8,142,0,0,0,0,0,0,0,0,0,0,0
0,0,-1984,-82,-77,598,-34,7,137,0,0,0,0,0,0,0,0,0,0,0
0,0,-1992,-94,-72,597,-35,7,120,0,0,0,0,0,0,0,0,0,0,0
0,0,-1985,-88,-74,598,-34,6,132,0,0,0,0,0,0,0,0,0,0,0
0,0,-1979,-86,-78,598,-33,7,138,0,0,0,0,0,0,0,0,0,0,0
0,0,-1993,-89,-77,598,-36,5,117,0,0,0,0,0,0,0,0,0,0,0
0,0,-1988,-84,-74,598,-34,6,133,0,0,0,0,0,0,0,0,0,0,0
0,0,-1989,-85,-78,598,-34,5,126,0,0,0,0,0,0,0,0,0,0,0
0,0,-1992,-80,-80,598,-35,9,129,0,0,0,0,0,0,0,0,0,0,0
0,0,-1989,-87,-70,597,-36,7,131,0,0,0,0,0,0,0,0,0,0,0
0,0,-1997,-95,-75,598,-35,7,112,0,0,0,0,0,0,0,0,0,0,0
0,0,-1988,-83,-77,598,-35,8,132,0,0,0,0,0,0,0,0,0,0,0
0,0,-1991,-87,-85,596,-33,8,117,0,0,0,0,0,0,0,0,0,0,0
0,0,-1994,-89,-69,597,-34,7,127,0,0,0,0,0,0,0,0,0,0,0
0,0,-1995,-88,-75,597,-33,7,122,0,0,0,0,0,0,0,0,0,0,0
0,0,-1984,-92,-72,596,-34,7,130,0,0,0,0,0,0,0,0,0,0,0
0,0,-1989,-83,-85,598,-32,8,126,0,0,0,0,0,0,0,0,0,0,0
0,0,-1989,-86,-87,597,-33,8,119,0,0,0,0,0,0,0,0,0,0,0
0,0,-1986,-85,-79,597,-34,6,128,0,0,0,0,0,0,0,0,0,0,0
0,0,-1987,-84,-75,595,-34,8,132,0,0,0,0,0,0,0,0,0,0,0
0,0,-1989,-88,-66,598,-35,7,136,0,0,0,0,0,0,0,0,0,0,0
0,0,-1991,-95,-74,598,-34,5,118,0,0,0,0,0,0,0,0,0,0,0
0,0,-1988,-86,-80,598,-36,6,123,0,0,0,0,0,0,0,0,0,0,0
0,0,-1982,-91,-81,598,-35,7,125,0,0,0,0,0,0,0,0,0,0,0
0,0,-1987,-90,-83,598,-33,7,121,0,0,0,0,0,0,0,0,0,0,0
0,0,-1989,-87,-65,599,-34,8,141,0,0,0,0,0,0,0,0,0,0,0
0,0,-1989,-87,-71,598,-32,7,135,0,0,0,0,0,0,0,0,0,0,0
0,0,-1987,-90,-66,597,-31,8,140,0,0,0,0,0,0,0,0,0,0,0
0,0,-1994,-86,-86,598,-32,6,115,0,0,0,0,0,0,0,0,0,0,0
0,0,-1990,-88,-74,596,-33,7,127,0,0,0,0,0,0,0,0,0,0,0
0,0,-1985,-84,-74,597,-33,6,136,0,0,0,0,0,0,0,0,0,0,0
0,0,-1986,-93,-77,598,-34,7,124,0,0,0,0,0,0,0,0,0,0,0
0,0,-1989,-87,-78,599,-34,7,127,0,0,0,0,0,0,0,0,0,0,0
0,0,-1988,-87,-69,595,-34,8,134,0,0,0,0,0,0,0,0,0,0,0
0,0,-1988,-94,-81,597,-34,7,116,0,0,0,0,0,0,0,0,0,0,0
0,0,-1988,-86,-75,597,-33,8,132,0,0,0,0,0,0,0,0,0,0,0
0,0,-1987,-83,-77,598,-34,7,133,0,0,0,0,0,0,0,0,0,0,0
0,0,-1986,-85,-78,597,-34,7,130,0,0,0,0,0,0,0,0,0,0,0
0,0,-1999,-85,-76,598,-35,7,119,0,0,0,0,0,0,0,0,0,0,0
0,0,-1984,-90,-89,599,-35,6,116,0,0,0,0,0,0,0,0,0,0,0
0,0,-1986,-83,-83,598,-35,7,127,0,0,0,0,0,0,0,0,0,0,0
0,0,-1994,-84,-69,597,-35,7,131,0,0,0,0,0,0,0,0,0,0,0
0,0,-1992,-90,-79,597,-34,6,117,0,0,0,0,0,0,0,0,0,0,0
0,0,-1987,-87,-65,597,-34,6,139,0,0,0,0,0,0,0,0,0,0,0
0,0,-1987,-88,-79,599,-33,7,128,0,0,0,0,0,0,0,0,0,0,0
0,0,-1990,-90,-62,597,-34,7,137,0,0,0,0,0,0,0,0,0,0,0
0,0,-1990,-90,-69,598,-33,7,132,0,0,0,0,0,0,0,0,0,0,0
0,0,-1987,-91,-76,598,-33,6,126,0,0,0,0,0,0,0,0,0,0,0
0,0,-1991,-85,-82,598,-33,7,123,0,0,0,0,0,0,0,0,0,0,0
0,0,-1992,-82,-72,597,-33,6,133,0,0,0,0,0,0,0,0,0,0,0
0,0,-1991,-81,-83,597,-33,7,125,0,0,0,0,0,0,0,0,0,0,0
0,0,-1980,-89,-73,598,-35,8,138,0,0,0,0,0,0,0,0,0,0,0
0,0,-1986,-82,-73,599,-35,7,139,0,0,0,0,0,0,0,0,0,0,0
0,0,-1988,-82,-69,598,-35,6,139,0,0,0,0,0,0,0,0,0,0,0
0,0,-1995,-86,-79,597,-33,8,121,0,0,0,0,0,0,0,0,0,0,0
0,0,-1989,-86,-74,596,-34,6,128,0,0,0,0,0,0,0,0,0,0,0
0,0,-1981,-88,-81,598,-33,6,130,0,0,0,0,0,0,0,0,0,0,0
0,0,-1986,-94,-81,598,-34,8,120,0,0,0,0,0,0,0,0,0,0,0
0,0,-1983,-86,-69,596,-34,8,141,0,0,0,0,0,0,0,0,0,0,0
0,0,-1985,-90,-62,597,-36,8,141,0,0,0,0,0,0,0,0,0,0,0
0,0,-1988,-85,-73,597,-35,7,132,0,0,0,0,0,0,0,0,0,0,0
0,0,-1989,-82,-83,598,-33,8,128,0,0,0,0,0,0,0,0,0,0,0
0,0,-1984,-79,-73,597,-34,9,145,0,0,0,0,0,0,0,0,0,0,0
0,0,-1988,-94,-90,596,-33,7,107,0,0,0,0,0,0,0,0,0,0,0
0,0,-1990,-87,-77,598,-35,5,123,0,0,0,0,0,0,0,0,0,0,0
0,0,-1988,-83,-70,599,-32,8,143,0,0,0,0,0,0,0,0,0,0,0
0,0,-1992,-80,-62,599,-34,6,146,0,0,0,0,0,0,0,0,0,0,0
0,0,-1988,-77,-76,598,-36,6,136,0,0,0,0,0,0,0,0,0,0,0
0,0,-1992,-84,-83,597,-35,6,118,0,0,0,0,0,0,0,0,0,0,0
0,0,-1982,-83,-77,598,-32,7,140,0,0,0,0,0,0,0,0,0,0,0
0,0,-1998,-81,-78,598,-34,6,122,0,0,0,0,0,0,0,0,0,0,0
0,0,-1998,-85,-82,598,-34,6,114,0,0,0,0,0,0,0,0,0,0,0
0,0,-1987,-88,-77,598,-34,5,126,0,0,0,0,0,0,0,0,0,0,0
0,0,-1991,-88,-84,598,-36,6,114,0,0,0,0,0,0,0,0,0,0,0
0,0,-1990,-83,-73,599,-33,7,136,0,0,0,0,0,0,0,0,0,0,0
0,0,-1985,-82,-72,597,-33,6,140,0,0,0,0,0,0,0,0,0,0,0
0,0,-1984,-83,-81,597,-34,5,129,0,0,0,0,0,0,0,0,0,0,0
0,0,-1984,-80,-69,598,-33,6,147,0,0,0,0,0,0,0,0,0,0,0
0,0,-1986,-86,-83,595,-34,5,120,0,0,0,0,0,0,0,0,0,0,0
0,0,-1990,-90,-78,599,-35,6,121,0,0,0,0,0,0,0,0,0,0,0
0,0,-1981,-90,-74,598,-35,5,132,0,0,0,0,0,0,0,0,0,0,0
0,0,-1987,-89,-78,598,-34,6,125,0,0,0,0,0,0,0,0,0,0,0
0,0,-1993,-85,-76,597,-34,6,124,0,0,0,0,0,0,0,0,0,0,0
0,0,-1988,-91,-85,596,-34,8,115,0,0,0,0,0,0,0,0,0,0,0
0,0,-1991,-86,-87,597,-33,6,115,0,0,0,0,0,0,0,0,0,0,0
0,0,-1985,-83,-76,598,-34,6,135,0,0,0,0,0,0,0,0,0,0,0
0,0,-1984,-90,-80,598,-34,6,125,0,0,0,0,0,0,0,0,0,0,0
0,0,-1988,-85,-76,595,-33,5,127,0,0,0,0,0,0,0,0,0,0,0
0,0,-1985,-92,-67,596,-36,6,131,0,0,0,0,0,0,0,0,0,0,0
0,0,-1988,-87,-69,597,-34,7,135,0,0,0,0,0,0,0,0,0,0,0
0,0,-1995,-87,-87,598,-33,6,111,0,0,0,0,0,0,0,0,0,0,0
0,0,-1984,-88,-83,600,-33,7,128,0,0,0,0,0,0,0,0,0,0,0
0,0,-1984,-82,-80,597,-34,7,133,0,0,0,0,0,0,0,0,0,0,0
0,0,-1991,-86,-73,597,-34,6,128,0,0,0,0,0,0,0,0,0,0,0
0,0,-1989,-87,-75,598,-33,6,129,0,0,0,0,0,0,0,0,0,0,0
0,0,-1988,-82,-82,599,-34,7,129,0,0,0,0,0,0,0,0,0,0,0
0,0,-1985,-84,-74,599,-34,7,138,0,0,0,0,0,0,0,0,0,0,0
0,0,-1986,-85,-78,596,-35,9,130,0,0,0,0,0,0,0,0,0,0,0
0,0,-1989,-84,-78,598,-32,6,130,0,0,0,0,0,0,0,0,0,0,0
0,0,-1995,-86,-78,596,-33,5,118,0,0,0,0,0,0,0,0,0,0,0
0,0,-1990,-88,-76,597,-35,5,122,0,0,0,0,0,0,0,0,0,0,0
0,0,-1989,-84,-88,596,-34,5,115,0,0,0,0,0,0,0,0,0,0,0
0,0,-1995,-84,-75,598,-34,6,125,0,0,0,0,0,0,0,0,0,0,0
0,0,-1985,-89,-86,599,-34,7,121,0,0,0,0,0,0,0,0,0,0,0
0,0,-1990,-86,-76,598,-35,7,127,0,0,0,0,0,0,0,0,0,0,0
0,0,-1984,-83,-84,595,-34,6,125,0,0,0,0,0,0,0,0,0,0,0
0,0,-1985,-80,-81,598,-35,6,132,0,0,0,0,0,0,0,0,0,0,0
0,0,-1985,-81,-75,596,-34,8,138,0,0,0,0,0,0,0,0,0,0,0
0,0,-1994,-86,-79,598,-34,5,119,0,0,0,0,0,0,0,0,0,0,0
0,0,-1997,-77,-84,599,-33,6,123,0,0,0,0,0,0,0,0,0,0,0
0,0,-1991,-84,-80,597,-34,5,122,0,0,0,0,0,0,0,0,0,0,0
0,0,-1985,-86,-77,597,-35,5,128,0,0,0,0,0,0,0,0,0,0,0
0,0,-1988,-85,-72,598,-33,6,135,0,0,0,0,0,0,0,0,0,0,0
0,0,-1992,-81,-83,598,-35,8,124,0,0,0,0,0,0,0,0,0,0,0
0,0,-1990,-77,-82,598,-31,6,133,0,0,0,0,0,0,0,0,0,0,0
0,0,-1988,-89,-74,597,-35,7,127,0,0,0,0,0,0,0,0,0,0,0
0,0,-1992,-86,-82,598,-34,7,120,0,0,0,0,0,0,0,0,0,0,0
0,0,-1990,-83,-76,598,-35,7,130,0,0,0,0,0,0,0,0,0,0,0
0,0,-1979,-86,-79,598,-33,5,135,0,0,0,0,0,0,0,0,0,0,0
0,0,-1985,-88,-72,597,-34,7,134,0,0,0,0,0,0,0,0,0,0,0
0,0,-1989,-85,-75,596,-33,7,130,0,0,0,0,0,0,0,0,0,0,0
0,0,-1987,-87,-67,599,-35,7,139,0,0,0,0,0,0,0,0,0,0,0
0,0,-1983,-81,-76,597,-36,9,139,0,0,0,0,0,0,0,0,0,0,0
0,0,-1980,-85,-80,599,-32,7,138,0,0,0,0,0,0,0,0,0,0,0
0,0,-1990,-85,-80,596,-34,7,123,0,0,0,0,0,0,0,0,0,0,0
0,0,-1994,-89,-89,599,-35,7,108,0,0,0,0,0,0,0,0,0,0,0
0,0,-1993,-79,-84,597,-33,6,123,0,0,0,0,0,0,0,0,0,0,0
0,0,-1985,-84,-81,598,-32,7,132,0,0,0,0,0,0,0,0,0,0,0
0,0,-1986,-92,-81,599,-34,7,122,0,0,0,0,0,0,0,0,0,0,0
0,0,-1988,-81,-82,597,-34,6,127,0,0,0,0,0,0,0,0,0,0,0
0,0,-1990,-91,-72,599,-34,5,126,0,0,0,0,0,0,0,0,0,0,0
0,0,-1989,-83,-75,598,-33,6,133,0,0,0,0,0,0,0,0,0,0,0
0,0,-2001,-83,-68,597,-33,6,127,0,0,0,0,0,0,0,0,0,0,0
0,0,-1991,-89,-75,597,-33,8,126,0,0,0,0,0,0,0,0,0,0,0
0,0,-1983,-80,-79,597,-33,7,138,0,0,0,0,0,0,0,0,0,0,0
0,0,-1989,-88,-67,597,-34,7,135,0,0,0,0,0,0,0,0,0,0,0
0,0,-1989,-84,-75,598,-34,7,132,0,0,0,0,0,0,0,0,0,0,0
0,0,-1990,-85,-73,597,-34,6,130,0,0,0,0,0,0,0,0,0,0,0
0,0,-1989,-89,-79,598,-33,7,124,0,0,0,0,0,0,0,0,0,0,0
0,0,-1992,-85,-85,597,-35,8,117,0,0,0,0,0,0,0,0,0,0,0
0,0,-1987,-84,-82,596,-34,6,124,0,0,0,0,0,0,0,0,0,0,0
0,0,-1989,-85,-79,599,-34,8,129,0,0,0,0,0,0,0,0,0,0,0
0,0,-1990,-84,-70,597,-36,7,133,0,0,0,0,0,0,0,0,0,0,0
0,0,-1993,-85,-75,598,-34,6,126,0,0,0,0,0,0,0,0,0,0,0
0,0,-1996,-88,-76,597,-33,6,119,0,0,0,0,0,0,0,0,0,0,0
0,0,-1988,-86,-76,596,-33,7,129,0,0,0,0,0,0,0,0,0,0,0
0,0,-1994,-88,-74,599,-35,7,124,0,0,0,0,0,0,0,0,0,0,0
0,0,-1993,-87,-71,598,-35,5,126,0,0,0,0,0,0,0,0,0,0,0
0,0,-1981,-88,-84,597,-33,7,127,0,0,0,0,0,0,0,0,0,0,0
0,0,-1988,-92,-68,597,-34,7,131,0,0,0,0,0,0,0,0,0,0,0
0,0,-1991,-92,-84,597,-33,8,114,0,0,0,0,0,0,0,0,0,0,0
0,0,-1981,-81,-78,596,-33,5,137,0,0,0,0,0,0,0,0,0,0,0
0,0,-1993,-84,-78,597,-34,9,126,0,0,0,0,0,0,0,0,0,0,0
0,0,-1984,-83,-82,597,-33,8,132,0,0,0,0,0,0,0,0,0,0,0
0,0,-1989,-84,-69,597,-34,7,137,0,0,0,0,0,0,0,0,0,0,0
0,0,-1993,-81,-73,599,-35,5,131,0,0,0,0,0,0,0,0,0,0,0
0,0,-1990,-87,-82,596,-35,7,118,0,0,0,0,0,0,0,0,0,0,0
0,0,-1996,-85,-84,596,-35,7,112,0,0,0,0,0,0,0,0,0,0,0
0,0,-1986,-94,-68,597,-33,8,133,0,0,0,0,0,0,0,0,0,0,0
0,0,-1988,-83,-68,598,-33,5,140,0,0,0,0,0,0,0,0,0,0,0
0,0,-1987,-80,-66,596,-33,6,145,0,0,0,0,0,0,0,0,0,0,0
0,0,-1987,-93,-73,598,-34,7,127,0,0,0,0,0,0,0,0,0,0,0
0,0,-1985,-88,-84,597,-35,7,121,0,0,0,0,0,0,0,0,0,0,0
0,0,-1988,-86,-80,599,-34,5,125,0,0,0,0,0,0,0,0,0,0,0
0,0,-1987,-88,-74,598,-35,6,129,0,0,0,0,0,0,0,0,0,0,0
0,0,-1987,-85,-70,598,-34,7,138,0,0,0,0,0,0,0,0,0,0,0
0,0,-1986,-89,-75,597,-33,6,129,0,0,0,0,0,0,0,0,0,0,0
0,0,-1984,-80,-82,598,-33,5,133,0,0,0,0,0,0,0,0,0,0,0
0,0,-1990,-87,-80,598,-34,8,124,0,0,0,0,0,0,0,0,0,0,0
0,0,-1995,-94,-88,596,-34,6,100,0,0,0,0,0,0,0,0,0,0,0
0,0,-1992,-81,-83,598,-36,8,123,0,0,0,0,0,0,0,0,0,0,0
0,0,-1990,-84,-80,598,-35,6,124,0,0,0,0,0,0,0,0,0,0,0
0,0,-1988,-84,-78,598,-36,4,125,0,0,0,0,0,0,0,0,0,0,0
0,0,-1987,-92,-73,598,-32,6,129,0,0,0,0,0,0,0,0,0,0,0
0,0,-1990,-86,-80,597,-33,7,124,0,0,0,0,0,0,0,0,0,0,0
0,0,-1996,-87,-79,600,-33,8,122,0,0,0,0,0,0,0,0,0,0,0
0,0,-1983,-86,-84,598,-34,7,127,0,0,0,0,0,0,0,0,0,0,0
0,0,-1988,-86,-85,597,-34,6,119,0,0,0,0,0,0,0,0,0,0,0
0,0,-1982,-87,-78,597,-32,7,134,0,0,0,0,0,0,0,0,0,0,0
0,0,-1984,-83,-71,597,-34,6,140,0,0,0,0,0,0,0,0,0,0,0
0,0,-1995,-93,-86,597,-35,6,103,0,0,0,0,0,0,0,0,0,0,0
0,0,-1990,-92,-82,598,-34,5,114,0,0,0,0,0,0,0,0,0,0,0
0,0,-1994,-90,-82,597,-35,6,111,0,0,0,0,0,0,0,0,0,0,0
0,0,-1984,-89,-75,599,-34,6,132,0,0,0,0,0,0,0,0,0,0,0
0,0,-1988,-91,-81,598,-34,6,119,0,0,0,0,0,0,0,0,0,0,0
0,0,-1982,-89,-79,597,-35,7,128,0,0,0,0,0,0,0,0,0,0,0
0,0,-1980,-82,-85,598,-34,7,133,0,0,0,0,0,0,0,0,0,0,0
0,0,-1986,-84,-90,597,-34,7,119,0,0,0,0,0,0,0,0,0,0,0
0,0,-1982,-88,-77,598,-35,7,132,0,0,0,0,0,0,0,0,0,0,0
0,0,-1988,-85,-78,599,-33,8,132,0,0,0,0,0,0,0,0,0,0,0
0,0,-1989,-81,-78,598,-32,7,134,0,0,0,0,0,0,0,0,0,0,0
0,0,-1979,-79,-72,596,-34,5,146,0,0,0,0,0,0,0,0,0,0,0
0,0,-1987,-77,-83,595,-33,7,131,0,0,0,0,0,0,0,0,0,0,0
0,0,-1991,-89,-71,597,-35,7,127,0,0,0,0,0,0,0,0,0,0,0
0,0,-1989,-90,-78,597,-34,7,122,0,0,0,0,0,0,0,0,0,0,0
0,0,-1995,-86,-83,598,-33,6,116,0,0,0,0,0,0,0,0,0,0,0
0,0,-1988,-87,-73,596,-35,8,130,0,0,0,0,0,0,0,0,0,0,0
0,0,-1986,-85,-80,598,-33,7,130,0,0,0,0,0,0,0,0,0,0,0
0,0,-1989,-89,-74,599,-34,5,127,0,0,0,0,0,0,0,0,0,0,0
0,0,-1988,-81,-74,597,-33,5,135,0,0,0,0,0,0,0,0,0,0,0
0,0,-1992,-86,-78,598,-34,7,124,0,0,0,0,0,0,0,0,0,0,0
0,0,-1990,-81,-82,598,-34,7,127,0,0,0,0,0,0,0,0,0,0,0
0,0,-1988,-88,-79,598,-35,7,124,0,0,0,0,0,0,0,0,0,0,0
0,0,-1994,-89,-76,599,-35,9,123,0,0,0,0,0,0,0,0,0,0,0
0,0,-1990,-80,-78,598,-35,7,131,0,0,0,0,0,0,0,0,0,0,0
0,0,-1996,-76,-78,597,-35,6,127,0,0,0,0,0,0,0,0,0,0,0
0,0,-1989,-83,-69,596,-34,7,137,0,0,0,0,0,0,0,0,0,0,0
0,0,-1986,-94,-71,596,-34,5,125,0,0,0,0,0,0,0,0,0,0,0
0,0,-1993,-90,-79,599,-34,6,118,0,0,0,0,0,0,0,0,0,0,0
0,0,-1987,-82,-81,598,-32,5,130,0,0,0,0,0,0,0,0,0,0,0
0,0,-1986,-87,-72,597,-34,5,132,0,0,0,0,0,0,0,0,0,0,0
0,0,-1986,-81,-75,597,-33,8,139,0,0,0,0,0,0,0,0,0,0,0
0,0,-1983,-85,-77,598,-32,7,137,0,0,0,0,0,0,0,0,0,0,0
0,0,-1993,-81,-86,597,-33,7,120,0,0,0,0,0,0,0,0,0,0,0
0,0,-1994,-85,-66,597,-34,8,135,0,0,0,0,0,0,0,0,0,0,0
0,0,-1987,-84,-84,597,-34,7,124,0,0,0,0,0,0,0,0,0,0,0
0,0,-1988,-86,-76,599,-33,9,134,0,0,0,0,0,0,0,0,0,0,0
0,0,-1983,-85,-83,597,-32,7,130,0,0,0,0,0,0,0,0,0,0,0
0,0,-1990,-90,-74,598,-34,6,125,0,0,0,0,0,0,0,0,0,0,0
0,0,-1988,-86,-68,597,-32,7,139,0,0,0,0,0,0,0,0,0,0,0
0,0,-1995,-89,-72,597,-33,6,123,0,0,0,0,0,0,0,0,0,0,0
0,0,-1985,-87,-71,597,-34,7,136,0,0,0,0,0,0,0,0,0,0,0
0,0,-1991,-84,-81,599,-35,6,123,0,0,0,0,0,0,0,0,0,0,0
0,0,-1992,-85,-74,596,-35,6,125,0,0,0,0,0,0,0,0,0,0,0
0,0,-1991,-85,-81,597,-34,8,123,0,0,0,0,0,0,0,0,0,0,0
0,0,-1992,-87,-87,596,-35,8,112,0,0,0,0,0,0,0,0,0,0,0
0,0,-1990,-85,-79,598,-34,6,125,0,0,0,0,0,0,0,0,0,0,0
0,0,-1992,-87,-69,597,-33,6,131,0,0,0,0,0,0,0,0,0,0,0
0,0,-1985,-88,-73,597,-36,6,130,0,0,0,0,0,0,0,0,0,0,0
0,0,-1989,-83,-85,597,-34,8,123,0,0,0,0,0,0,0,0,0,0,0
0,0,-1988,-85,-71,596,-34,9,136,0,0,0,0,0,0,0,0,0,0,0
0,0,-1992,-86,-73,597,-35,7,127,0,0,0,0,0,0,0,0,0,0,0
0,0,-1990,-86,-70,596,-34,7,132,0,0,0,0,0,0,0,0,0,0,0
0,0,-1987,-85,-78,598,-36,7,128,0,0,0,0,0,0,0,0,0,0,0
0,0,-1991,-85,-66,598,-34,7,138,0,0,0,0,0,0,0,0,0,0,0
0,0,-1982,-85,-72,597,-35,8,140,0,0,0,0,0,0,0,0,0,0,0
0,0,-1988,-84,-76,598,-32,7,134,0,0,0,0,0,0,0,0,0,0,0
0,0,-1984,-87,-72,597,-36,7,134,0,0,0,0,0,0,0,0,0,0,0
0,0,-1989,-84,-77,596,-33,7,129,0,0,0,0,0,0,0,0,0,0,0
0,0,-1986,-84,-81,597,-33,8,130,0,0,0,0,0,0,0,0,0,0,0
0,0,-1993,-85,-78,597,-35,6,121,0,0,0,0,0,0,0,0,0,0,0
0,0,-1996,-92,-81,596,-32,6,110,0,0,0,0,0,0,0,0,0,0,0
0,0,-1991,-86,-75,597,-34,8,128,0,0,0,0,0,0,0,0,0,0,0
0,0,-1991,-88,-80,596,-35,8,119,0,0,0,0,0,0,0,0,0,0,0
0,0,-1991,-89,-75,599,-34,6,125,0,0,0,0,0,0,0,0,0,0,0
0,0,-1991,-89,-75,597,-35,7,123,0,0,0,0,0,0,0,0,0,0,0
0,0,-1988,-82,-73,597,-33,7,137,0,0,0,0,0,0,0,0,0,0,0
0,0,-1984,-88,-84,597,-34,6,122,0,0,0,0,0,0,0,0,0,0,0
0,0,-1984,-84,-71,597,-33,7,141,0,0,0,0,0,0,0,0,0,0,0
0,0,-1987,-88,-77,598,-34,7,128,0,0,0,0,0,0,0,0,0,0,0
0,0,-1987,-79,-87,598,-34,8,128,0,0,0,0,0,0,0,0,0,0,0
0,0,-1993,-91,-71,598,-35,5,122,0,0,0,0,0,0,0,0,0,0,0
0,0,-1990,-86,-69,597,-34,7,134,0,0,0,0,0,0,0,0,0,0,0
0,0,-1991,-94,-77,598,-35,6,116,0,0,0,0,0,0,0,0,0,0,0
0,0,-1985,-81,-90,599,-33,8,127,0,0,0,0,0,0,0,0,0,0,0
0,0,-1986,-85,-86,597,-33,5,121,0,0,0,0,0,0,0,0,0,0,0
0,0,-1988,-83,-76,598,-34,7,133,0,0,0,0,0,0,0,0,0,0,0
0,0,-1990,-84,-74,598,-34,8,133,0,0,0,0,0,0,0,0,0,0,0
0,0,-1987,-93,-82,595,-35,7,114,0,0,0,0,0,0,0,0,0,0,0
0,0,-1986,-85,-73,599,-33,5,136,0,0,0,0,0,0,0,0,0,0,0
0,0,-1987,-82,-76,598,-34,6,134,0,0,0,0,0,0,0,0,0,0,0
0,0,-1989,-88,-70,599,-35,6,132,0,0,0,0,0,0,0,0,0,0,0
0,0,-1985,-85,-77,599,-35,7,133,0,0,0,0,0,0,0,0,0,0,0
0,0,-1992,-80,-82,597,-35,6,123,0,0,0,0,0,0,0,0,0,0,0
0,0,-1994,-79,-76,597,-34,6,129,0,0,0,0,0,0,0,0,0,0,0
0,0,-1992,-89,-70,597,-35,7,127,0,0,0,0,0,0,0,0,0,0,0
0,0,-1984,-83,-74,597,-36,5,134,0,0,0,0,0,0,0,0,0,0,0
0,0,-1991,-83,-79,598,-35,7,126,0,0,0,0,0,0,0,0,0,0,0
0,0,-1993,-82,-76,598,-34,6,128,0,0,0,0,0,0,0,0,0,0,0
0,0,-1985,-79,-75,596,-34,6,138,0,0,0,0,0,0,0,0,0,0,0
0,0,-1986,-81,-83,597,-36,7,127,0,0,0,0,0,0,0,0,0,0,0
0,0,-1986,-86,-81,597,-34,6,125,0,0,0,0,0,0,0,0,0,0,0
0,0,-1992,-93,-80,596,-33,7,114,0,0,0,0,0,0,0,0,0,0,0
0,0,-1992,-77,-81,597,-32,5,129,0,0,0,0,0,0,0,0,0,0,0
0,0,-1992,-80,-74,596,-35,7,131,0,0,0,0,0,0,0,0,0,0,0
0,0,-1991,-83,-81,599,-34,7,126,0,0,0,0,0,0,0,0,0,0,0
0,0,-1987,-86,-75,598,-35,6,130,0,0,0,0,0,0,0,0,0,0,0
0,0,-1979,-94,-75,597,-34,7,131,0,0,0,0,0,0,0,0,0,0,0
0,0,-1983,-87,-76,598,-34,8,135,0,0,0,0,0,0,0,0,0,0,0
0,0,-1981,-89,-78,595,-33,6,129,0,0,0,0,0,0,0,0,0,0,0
0,0,-1994,-87,-88,598,-34,5,109,0,0,0,0,0,0,0,0,0,0,0
0,0,-1986,-86,-75,598,-35,7,132,0,0,0,0,0,0,0,0,0,0,0
0,0,-1987,-93,-65,599,-33,7,137,0,0,0,0,0,0,0,0,0,0,0
0,0,-1987,-87,-81,599,-34,9,128,0,0,0,0,0,0,0,0,0,0,0
0,0,-1985,-86,-78,597,-33,9,133,0,0,0,0,0,0,0,0,0,0,0
0,0,-1992,-82,-75,598,-34,7,131,0,0,0,0,0,0,0,0,0,0,0
0,0,-1996,-82,-82,598,-34,5,118,0,0,0,0,0,0,0,0,0,0,0
0,0,-1984,-88,-71,597,-35,7,135,0,0,0,0,0,0,0,0,0,0,0
0,0,-1989,-85,-81,599,-34,7,126,0,0,0,0,0,0,0,0,0,0,0
0,0,-1985,-89,-89,598,-32,7,119,0,0,0,0,0,0,0,0,0,0,0
0,0,-1986,-90,-73,599,-35,8,132,0,0,0,0,0,0,0,0,0,0,0
0,0,-1995,-90,-75,596,-34,8,119,0,0,0,0,0,0,0,0,0,0,0
0,0,-1989,-80,-72,596,-35,7,136,0,0,0,0,0,0,0,0,0,0,0
0,0,-1989,-101,-75,596,-35,8,113,0,0,0,0,0,0,0,0,0,0,0
0,0,-1983,-89,-69,596,-35,7,136,0,0,0,0,0,0,0,0,0,0,0
0,0,-1989,-90,-81,598,-34,9,122,0,0,0,0,0,0,0,0,0,0,0
0,0,-1992,-85,-71,599,-34,7,133,0,0,0,0,0,0,0,0,0,0,0
0,0,-1985,-92,-74,597,-34,7,128,0,0,0,0,0,0,0,0,0,0,0
0,0,-1982,-82,-83,598,-35,8,133,0,0,0,0,0,0,0,0,0,0,0
0,0,-1990,-77,-79,600,-31,7,139,0,0,0,0,0,0,0,0,0,0,0
0,0,-1990,-84,-79,596,-34,6,124,0,0,0,0,0,0,0,0,0,0,0
0,0,-1993,-75,-67,596,-32,7,145,0,0,0,0,0,0,0,0,0,0,0
0,0,-1993,-92,-81,597,-32,7,115,0,0,0,0,0,0,0,0,0,0,0
0,0,-1986,-79,-82,597,-34,5,130,0,0,0,0,0,0,0,0,0,0,0
0,0,-1986,-83,-73,598,-34,6,137,0,0,0,0,0,0,0,0,0,0,0
0,0,-1991,-90,-79,598,-35,6,118,0,0,0,0,0,0,0,0,0,0,0
0,0,-1991,-87,-76,597,-35,7,124,0,0,0,0,0,0,0,0,0,0,0
0,0,-1989,-82,-81,597,-34,8,128,0,0,0,0,0,0,0,0,0,0,0
0,0,-1991,-84,-78,598,-33,8,129,0,0,0,0,0,0,0,0,0,0,0
0,0,-1991,-87,-81,598,-33,5,120,0,0,0,0,0,0,0,0,0,0,0
0,0,-1989,-85,-79,597,-34,6,125,0,0,0,0,0,0,0,0,0,0,0
0,0,-1983,-85,-86,598,-33,7,127,0,0,0,0,0,0,0,0,0,0,0
0,0,-1987,-92,-82,599,-35,6,118,0,0,0,0,0,0,0,0,0,0,0
0,0,-1986,-82,-78,596,-33,7,133,0,0,0,0,0,0,0,0,0,0,0
0,0,-1989,-83,-90,599,-36,7,117,0,0,0,0,0,0,0,0,0,0,0
0,0,-1992,-83,-84,598,-34,7,121,0,0,0,0,0,0,0,0,0,0,0
0,0,-1991,-83,-78,598,-35,6,126,0,0,0,0,0,0,0,0,0,0,0
0,0,-1991,-87,-82,597,-35,7,118,0,0,0,0,0,0,0,0,0,0,0
0,0,-1987,-87,-75,596,-33,6,129,0,0,0,0,0,0,0,0,0,0,0
0,0,-1993,-88,-72,597,-35,7,125,0,0,0,0,0,0,0,0,0,0,0
0,0,-1990,-85,-73,596,-35,7,129,0,0,0,0,0,0,0,0,0,0,0
0,0,-1991,-87,-73,599,-32,6,131,0,0,0,0,0,0,0,0,0,0,0
0,0,-1989,-88,-72,597,-34,5,128,0,0,0,0,0,0,0,0,0,0,0
0,0,-1998,-97,-81,596,-34,7,102,0,0,0,0,0,0,0,0,0,0,0
0,0,-1992,-84,-87,598,-34,6,116,0,0,0,0,0,0,0,0,0,0,0
0,0,-1982,-87,-87,597,-34,6,122,0,0,0,0,0,0,0,0,0,0,0
0,0,-1986,-87,-80,598,-35,7,126,0,0,0,0,0,0,0,0,0,0,0
0,0,-1992,-87,-75,599,-34,5,125,0,0,0,0,0,0,0,0,0,0,0
0,0,-1989,-83,-66,597,-35,7,140,0,0,0,0,0,0,0,0,0,0,0
0,0,-1990,-86,-74,595,-35,5,124,0,0,0,0,0,0,0,0,0,0,0
0,0,-1986,-85,-65,596,-35,7,141,0,0,0,0,0,0,0,0,0,0,0
0,0,-1990,-84,-80,599,-33,9,130,0,0,0,0,0,0,0,0,0,0,0
0,0,-1990,-82,-78,598,-34,6,129,0,0,0,0,0,0,0,0,0,0,0
0,0,-1991,-87,-76,597,-34,6,124,0,0,0,0,0,0,0,0,0,0,0
0,0,-1988,-85,-92,599,-34,7,116,0,0,0,0,0,0,0,0,0,0,0
0,0,-1991,-82,-74,596,-33,7,132,0,0,0,0,0,0,0,0,0,0,0
0,0,-1987,-82,-74,596,-34,6,134,0,0,0,0,0,0,0,0,0,0,0
0,0,-1984,-90,-77,596,-35,6,125,0,0,0,0,0,0,0,0,0,0,0
0,0,-1980,-88,-73,597,-33,6,138,0,0,0,0,0,0,0,0,0,0,0
0,0,-1990,-84,-81,598,-33,5,124,0,0,0,0,0,0,0,0,0,0,0
0,0,-1997,-82,-71,596,-32,8,131,0,0,0,0,0,0,0,0,0,0,0
0,0,-1996,-88,-76,597,-33,7,120,0,0,0,0,0,0,0,0,0,0,0
0,0,-1991,-82,-80,599,-33,8,130,0,0,0,0,0,0,0,0,0,0,0
0,0,-1988,-86,-89,596,-34,5,113,0,0,0,0,0,0,0,0,0,0,0
0,0,-1986,-79,-78,599,-33,5,137,0,0,0,0,0,0,0,0,0,0,0
0,0,-1993,-94,-70,598,-33,7,124,0,0,0,0,0,0,0,0,0,0,0
0,0,-1993,-86,-92,597,-32,6,109,0,0,0,0,0,0,0,0,0,0,0
0,0,-1985,-84,-75,597,-35,7,134,0,0,0,0,0,0,0,0,0,0,0
0,0,-1992,-82,-80,596,-35,6,122,0,0,0,0,0,0,0,0,0,0,0
0,0,-1995,-83,-75,597,-34,7,126,0,0,0,0,0,0,0,0,0,0,0
0,0,-1985,-90,-69,599,-34,6,136,0,0,0,0,0,0,0,0,0,0,0
0,0,-1986,-92,-78,597,-33,8,125,0,0,0,0,0,0,0,0,0,0,0
0,0,-1987,-87,-77,597,-34,7,128,0,0,0,0,0,0,0,0,0,0,0
0,0,-1992,-89,-73,597,-34,6,124,0,0,0,0,0,0,0,0,0,0,0
0,0,-1981,-87,-71,598,-34,6,140,0,0,0,0,0,0,0,0,0,0,0
0,0,-1989,-84,-71,599,-35,6,135,0,0,0,0,0,0,0,0,0,0,0
0,0,-1985,-81,-77,596,-34,6,134,0,0,0,0,0,0,0,0,0,0,0
0,0,-1991,-86,-83,599,-33,5,120,0,0,0,0,0,0,0,0,0,0,0
0,0,-1993,-86,-75,598,-33,8,128,0,0,0,0,0,0,0,0,0,0,0
0,0,-1989,-83,-74,597,-34,7,133,0,0,0,0,0,0,0,0,0,0,0
0,0,-1989,-87,-76,596,-33,7,127,0,0,0,0,0,0,0,0,0,0,0
0,0,-1985,-77,-77,597,-33,6,140,0,0,0,0,0,0,0,0,0,0,0
0,0,-1989,-89,-74,598,-35,7,127,0,0,0,0,0,0,0,0,0,0,0
0,0,-1996,-82,-85,596,-33,6,115,0,0,0,0,0,0,0,0,0,0,0
0,0,-1996,-86,-85,597,-35,8,112,0,0,0,0,0,0,0,0,0,0,0
0,0,-1989,-87,-67,596,-34,7,135,0,0,0,0,0,0,0,0,0,0,0
0,0,-1990,-90,-74,597,-32,6,126,0,0,0,0,0,0,0,0,0,0,0
0,0,-1982,-86,-83,597,-34,7,128,0,0,0,0,0,0,0,0,0,0,0
0,0,-1983,-92,-78,594,-34,7,123,0,0,0,0,0,0,0,0,0,0,0
0,0,-1983,-85,-83,599,-33,6,130,0,0,0,0,0,0,0,0,0,0,0
0,0,-1992,-90,-72,596,-34,7,124,0,0,0,0,0,0,0,0,0,0,0
0,0,-1984,-89,-76,597,-35,7,129,0,0,0,0,0,0,0,0,0,0,0
0,0,-1988,-86,-77,597,-34,7,128,0,0,0,0,0,0,0,0,0,0,0
0,0,-1991,-88,-74,596,-34,6,124,0,0,0,0,0,0,0,0,0,0,0
0,0,-1990,-79,-83,596,-34,9,128,0,0,0,0,0,0,0,0,0,0,0
0,0,-1983,-87,-87,598,-34,6,122,0,0,0,0,0,0,0,0,0,0,0
0,0,-1985,-91,-84,596,-32,7,120,0,0,0,0,0,0,0,0,0,0,0
0,0,-1990,-86,-82,595,-36,7,117,0,0,0,0,0,0,0,0,0,0,0
0,0,-1993,-92,-80,597,-35,7,113,0,0,0,0,0,0,0,0,0,0,0
0,0,-1987,-87,-84,596,-34,6,119,0,0,0,0,0,0,0,0,0,0,0
0,0,-1983,-91,-85,597,-35,7,119,0,0,0,0,0,0,0,0,0,0,0
0,0,-1989,-79,-79,597,-35,8,132,0,0,0,0,0,0,0,0,0,0,0
0,0,-1983,-84,-70,599,-34,8,145,0,0,0,0,0,0,0,0,0,0,0
0,0,-1984,-87,-80,597,-32,8,131,0,0,0,0,0,0,0,0,0,0,0
0,0,-1988,-86,-70,596,-34,9,136,0,0,0,0,0,0,0,0,0,0,0
0,0,-1999,-86,-68,598,-34,7,127,0,0,0,0,0,0,0,0,0,0,0
0,0,-1991,-85,-83,597,-33,8,122,0,0,0,0,0,0,0,0,0,0,0
0,0,-1988,-86,-77,597,-33,7,129,0,0,0,0,0,0,0,0,0,0,0
0,0,-1988,-79,-77,598,-35,6,134,0,0,0,0,0,0,0,0,0,0,0
0,0,-1993,-80,-79,597,-34,8,128,0,0,0,0,0,0,0,0,0,0,0
0,0,-1986,-92,-68,598,-33,8,136,0,0,0,0,0,0,0,0,0,0,0
0,0,-1987,-92,-76,595,-34,7,122,0,0,0,0,0,0,0,0,0,0,0
0,0,-1987,-86,-80,597,-34,7,126,0,0,0,0,0,0,0,0,0,0,0
0,0,-1987,-82,-73,596,-34,6,135,0,0,0,0,0,0,0,0,0,0,0
0,0,-1991,-87,-81,596,-35,8,119,0,0,0,0,0,0,0,0,0,0,0
0,0,-1989,-93,-82,596,-35,6,112,0,0,0,0,0,0,0,0,0,0,0
0,0,-1988,-85,-81,596,-33,7,125,0,0,0,0,0,0,0,0,0,0,0
0,0,-1990,-85,-83,598,-35,6,120,0,0,0,0,0,0,0,0,0,0,0
0,0,-1990,-84,-81,596,-37,7,120,0,0,0,0,0,0,0,0,0,0,0
0,0,-1988,-94,-77,599,-33,8,124,0,0,0,0,0,0,0,0,0,0,0
0,0,-1984,-85,-79,596,-34,7,130,0,0,0,0,0,0,0,0,0,0,0
0,0,-1991,-85,-85,598,-33,7,120,0,0,0,0,0,0,0,0,0,0,0
0,0,-1984,-86,-72,597,-33,6,137,0,0,0,0,0,0,0,0,0,0,0
0,0,-1987,-86,-76,598,-35,8,131,0,0,0,0,0,0,0,0,0,0,0
0,0,-1989,-83,-79,599,-34,7,130,0,0,0,0,0,0,0,0,0,0,0
0,0,-1992,-85,-87,597,-34,5,113,0,0,0,0,0,0,0,0,0,0,0
0,0,-1987,-87,-70,597,-35,6,133,0,0,0,0,0,0,0,0,0,0,0
0,0,-1994,-83,-75,598,-33,7,129,0,0,0,0,0,0,0,0,0,0,0
0,0,-1991,-85,-75,598,-34,7,129,0,0,0,0,0,0,0,0,0,0,0
0,0,-1985,-94,-73,598,-34,7,128,0,0,0,0,0,0,0,0,0,0,0
0,0,-1984,-88,-83,597,-34,6,123,0,0,0,0,0,0,0,0,0,0,0
0,0,-1991,-88,-82,597,-35,7,117,0,0,0,0,0,0,0,0,0,0,0
