1,2,3,4,5,6,7,8,9,10,11,12,13,14,15,16,17,18,19,20
UserData_20,Frame ID£º0x01,FC_ACC_X,FC_ACC_Y,FC_ACC_Z,FC_GYR_X,FC_GYR_Y,FC_GYR_Z,FC_STA_Shock,Frame ID£º0x02,FC_MAG_X,FC_MAG_Y,FC_MAG_Z,FC_ALT_BAR,FC_SenserTMP,FC_STA_BAR,FC_STA_MAG,Frame ID£º0x03,FC_ATT_ROL,FC_ATT_PIT
0,0,2074,-2,-86,602,-36,12,193,0,0,0,0,0,0,0,0,0,0,0
0,0,2080,6,-94,603,-34,12,203,0,0,0,0,0,0,0,0,0,0,0
0,0,2079,1,-96,603,-35,13,195,0,0,0,0,0,0,0,0,0,0,0
0,0,2079,1,-99,601,-35,12,189,0,0,0,0,0,0,0,0,0,0,0
0,0,2072,0,-101,602,-36,13,180,0,0,0,0,0,0,0,0,0,0,0
0,0,2070,-1,-102,602,-34,11,175,0,0,0,0,0,0,0,0,0,0,0
0,0,2081,0,-104,602,-34,11,186,0,0,0,0,0,0,0,0,0,0,0
0,0,2078,-1,-88,602,-35,12,197,0,0,0,0,0,0,0,0,0,0,0
0,0,2075,0,-98,601,-34,12,186,0,0,0,0,0,0,0,0,0,0,0
0,0,2074,5,-106,602,-35,12,182,0,0,0,0,0,0,0,0,0,0,0
0,0,2079,6,-97,602,-35,12,197,0,0,0,0,0,0,0,0,0,0,0
0,0,2075,2,-104,603,-34,11,183,0,0,0,0,0,0,0,0,0,0,0
0,0,2074,4,-98,603,-35,13,191,0,0,0,0,0,0,0,0,0,0,0
0,0,2076,-2,-93,601,-35,12,188,0,0,0,0,0,0,0,0,0,0,0
0,0,2070,5,-98,601,-35,12,185,0,0,0,0,0,0,0,0,0,0,0
0,0,2078,-4,-97,601,-34,13,186,0,0,0,0,0,0,0,0,0,0,0
0,0,2072,6,-112,601,-35,12,174,0,0,0,0,0,0,0,0,0,0,0
0,0,2076,5,-106,603,-35,12,185,0,0,0,0,0,0,0,0,0,0,0
0,0,2077,7,-118,603,-35,13,177,0,0,0,0,0,0,0,0,0,0,0
0,0,2076,3,-106,602,-34,13,184,0,0,0,0,0,0,0,0,0,0,0
0,0,2082,3,-104,601,-35,13,190,0,0,0,0,0,0,0,0,0,0,0
0,0,2073,2,-103,602,-37,12,179,0,0,0,0,0,0,0,0,0,0,0
0,0,2071,9,-91,602,-36,12,197,0,0,0,0,0,0,0,0,0,0,0
0,0,2081,5,-98,602,-36,12,196,0,0,0,0,0,0,0,0,0,0,0
0,0,2075,3,-83,602,-36,11,202,0,0,0,0,0,0,0,0,0,0,0
0,0,2078,3,-94,603,-34,12,198,0,0,0,0,0,0,0,0,0,0,0
0,0,2081,6,-107,602,-34,11,189,0,0,0,0,0,0,0,0,0,0,0
0,0,2066,7,-102,601,-35,13,180,0,0,0,0,0,0,0,0,0,0,0
0,0,2074,6,-107,603,-35,12,183,0,0,0,0,0,0,0,0,0,0,0
0,0,2077,12,-93,602,-36,12,204,0,0,0,0,0,0,0,0,0,0,0
0,0,2076,13,-100,602,-35,12,198,0,0,0,0,0,0,0,0,0,0,0
0,0,2078,7,-95,603,-36,13,200,0,0,0,0,0,0,0,0,0,0,0
0,0,2083,-1,-95,602,-36,12,194,0,0,0,0,0,0,0,0,0,0,0
0,0,2079,-5,-110,602,-34,11,172,0,0,0,0,0,0,0,0,0,0,0
0,0,2079,4,-106,603,-34,11,187,0,0,0,0,0,0,0,0,0,0,0
0,0,2073,-2,-93,601,-36,11,183,0,0,0,0,0,0,0,0,0,0,0
0,0,2075,-1,-96,602,-36,11,184,0,0,0,0,0,0,0,0,0,0,0
0,0,2075,2,-90,602,-36,12,195,0,0,0,0,0,0,0,0,0,0,0
0,0,2080,0,-100,601,-37,13,187,0,0,0,0,0,0,0,0,0,0,0
0,0,2081,-2,-94,601,-35,11,191,0,0,0,0,0,0,0,0,0,0,0
0,0,2083,3,-102,601,-35,11,191,0,0,0,0,0,0,0,0,0,0,0
0,0,2074,12,-101,601,-34,11,193,0,0,0,0,0,0,0,0,0,0,0
0,0,2072,-1,-103,600,-35,11,173,0,0,0,0,0,0,0,0,0,0,0
0,0,2077,3,-102,602,-35,10,185,0,0,0,0,0,0,0,0,0,0,0
0,0,2073,1,-95,603,-37,12,187,0,0,0,0,0,0,0,0,0,0,0
0,0,2075,1,-99,602,-35,12,186,0,0,0,0,0,0,0,0,0,0,0
0,0,2073,3,-94,603,-35,11,191,0,0,0,0,0,0,0,0,0,0,0
0,0,2070,-2,-101,602,-34,11,175,0,0,0,0,0,0,0,0,0,0,0
0,0,2080,6,-110,602,-37,11,182,0,0,0,0,0,0,0,0,0,0,0
0,0,2079,9,-93,603,-36,11,203,0,0,0,0,0,0,0,0,0,0,0
0,0,2074,7,-95,601,-35,11,193,0,0,0,0,0,0,0,0,0,0,0
0,0,2083,2,-107,602,-33,12,189,0,0,0,0,0,0,0,0,0,0,0
0,0,2076,2,-101,602,-35,11,185,0,0,0,0,0,0,0,0,0,0,0
0,0,2071,4,-97,602,-36,10,184,0,0,0,0,0,0,0,0,0,0,0
0,0,2068,5,-108,602,-36,11,172,0,0,0,0,0,0,0,0,0,0,0
0,0,2073,-2,-98,601,-35,12,180,0,0,0,0,0,0,0,0,0,0,0
0,0,2073,4,-95,602,-37,11,188,0,0,0,0,0,0,0,0,0,0,0
0,0,2070,0,-103,603,-35,12,177,0,0,0,0,0,0,0,0,0,0,0
0,0,2077,7,-97,600,-38,12,191,0,0,0,0,0,0,0,0,0,0,0
0,0,2078,1,-89,601,-35,11,197,0,0,0,0,0,0,0,0,0,0,0
0,0,2067,5,-89,603,-35,11,192,0,0,0,0,0,0,0,0,0,0,0
0,0,2075,7,-103,603,-36,11,187,0,0,0,0,0,0,0,0,0,0,0
0,0,2077,-6,-103,602,-35,10,174,0,0,0,0,0,0,0,0,0,0,0
0,0,2077,-1,-95,603,-35,14,192,0,0,0,0,0,0,0,0,0,0,0
0,0,2076,8,-88,602,-36,12,204,0,0,0,0,0,0,0,0,0,0,0
0,0,2077,1,-97,604,-35,12,192,0,0,0,0,0,0,0,0,0,0,0
0,0,2077,6,-88,602,-35,13,205,0,0,0,0,0,0,0,0,0,0,0
0,0,2071,13,-108,605,-36,12,187,0,0,0,0,0,0,0,0,0,0,0
0,0,2074,9,-102,602,-34,13,192,0,0,0,0,0,0,0,0,0,0,0
0,0,2085,7,-93,602,-35,12,208,0,0,0,0,0,0,0,0,0,0,0
0,0,2068,2,-97,602,-35,10,180,0,0,0,0,0,0,0,0,0,0,0
0,0,2076,-4,-104,602,-35,13,177,0,0,0,0,0,0,0,0,0,0,0
0,0,2077,0,-89,602,-34,11,197,0,0,0,0,0,0,0,0,0,0,0
0,0,2078,5,-94,601,-36,12,196,0,0,0,0,0,0,0,0,0,0,0
0,0,2072,3,-113,601,-35,11,169,0,0,0,0,0,0,0,0,0,0,0
0,0,2071,0,-97,603,-35,11,183,0,0,0,0,0,0,0,0,0,0,0
0,0,2077,14,-96,601,-36,12,202,0,0,0,0,0,0,0,0,0,0,0
0,0,2078,2,-111,601,-34,11,177,0,0,0,0,0,0,0,0,0,0,0
0,0,2077,4,-105,604,-35,12,187,0,0,0,0,0,0,0,0,0,0,0
0,0,2076,3,-86,602,-35,13,203,0,0,0,0,0,0,0,0,0,0,0
0,0,2066,11,-87,602,-36,13,199,0,0,0,0,0,0,0,0,0,0,0
0,0,2073,4,-92,602,-35,12,194,0,0,0,0,0,0,0,0,0,0,0
0,0,2068,11,-103,602,-37,12,183,0,0,0,0,0,0,0,0,0,0,0
0,0,2075,12,-99,602,-36,13,197,0,0,0,0,0,0,0,0,0,0,0
0,0,2082,4,-83,605,-35,11,214,0,0,0,0,0,0,0,0,0,0,0
0,0,2071,4,-93,603,-35,11,191,0,0,0,0,0,0,0,0,0,0,0
0,0,2082,2,-94,602,-36,11,197,0,0,0,0,0,0,0,0,0,0,0
0,0,2083,9,-94,601,-35,9,203,0,0,0,0,0,0,0,0,0,0,0
0,0,2081,1,-98,602,-36,12,192,0,0,0,0,0,0,0,0,0,0,0
0,0,2079,5,-105,600,-36,11,184,0,0,0,0,0,0,0,0,0,0,0
0,0,2076,5,-99,602,-35,12,191,0,0,0,0,0,0,0,0,0,0,0
0,0,2079,6,-104,602,-36,11,188,0,0,0,0,0,0,0,0,0,0,0
0,0,2072,4,-104,601,-36,9,176,0,0,0,0,0,0,0,0,0,0,0
0,0,2075,2,-89,601,-34,10,195,0,0,0,0,0,0,0,0,0,0,0
0,0,2074,4,-103,603,-36,11,183,0,0,0,0,0,0,0,0,0,0,0
0,0,2074,10,-98,602,-35,11,194,0,0,0,0,0,0,0,0,0,0,0
0,0,2072,2,-103,601,-35,12,179,0,0,0,0,0,0,0,0,0,0,0
0,0,2077,0,-99,603,-36,11,186,0,0,0,0,0,0,0,0,0,0,0
0,0,2073,-6,-96,602,-36,12,178,0,0,0,0,0,0,0,0,0,0,0
0,0,2074,-1,-91,600,-36,12,187,0,0,0,0,0,0,0,0,0,0,0
0,0,2066,3,-96,602,-34,12,183,0,0,0,0,0,0,0,0,0,0,0
0,0,2078,8,-101,603,-35,13,196,0,0,0,0,0,0,0,0,0,0,0
0,0,2069,0,-103,601,-34,11,174,0,0,0,0,0,0,0,0,0,0,0
0,0,2076,4,-104,602,-34,11,185,0,0,0,0,0,0,0,0,0,0,0
0,0,2073,3,-101,603,-34,11,185,0,0,0,0,0,0,0,0,0,0,0
0,0,2079,-1,-102,602,-34,12,185,0,0,0,0,0,0,0,0,0,0,0
0,0,2071,1,-97,602,-34,13,186,0,0,0,0,0,0,0,0,0,0,0
0,0,2068,12,-95,603,-35,12,195,0,0,0,0,0,0,0,0,0,0,0
0,0,2076,0,-99,601,-36,13,185,0,0,0,0,0,0,0,0,0,0,0
0,0,2079,2,-101,602,-33,12,191,0,0,0,0,0,0,0,0,0,0,0
0,0,2077,2,-103,603,-35,12,186,0,0,0,0,0,0,0,0,0,0,0
0,0,2072,9,-84,602,-34,11,206,0,0,0,0,0,0,0,0,0,0,0
0,0,2078,8,-100,603,-34,10,195,0,0,0,0,0,0,0,0,0,0,0
0,0,2078,-1,-110,602,-36,12,174,0,0,0,0,0,0,0,0,0,0,0
0,0,2082,5,-101,601,-35,11,193,0,0,0,0,0,0,0,0,0,0,0
0,0,2078,1,-89,602,-37,12,197,0,0,0,0,0,0,0,0,0,0,0
0,0,2072,4,-98,601,-34,12,187,0,0,0,0,0,0,0,0,0,0,0
0,0,2074,4,-104,602,-34,12,184,0,0,0,0,0,0,0,0,0,0,0
0,0,2072,-2,-100,602,-36,13,178,0,0,0,0,0,0,0,0,0,0,0
0,0,2074,-7,-102,603,-36,12,173,0,0,0,0,0,0,0,0,0,0,0
0,0,2075,-2,-99,603,-35,12,183,0,0,0,0,0,0,0,0,0,0,0
0,0,2081,8,-90,601,-33,12,209,0,0,0,0,0,0,0,0,0,0,0
0,0,2083,7,-89,602,-34,12,211,0,0,0,0,0,0,0,0,0,0,0
0,0,2088,10,-90,603,-35,11,217,0,0,0,0,0,0,0,0,0,0,0
0,0,2070,8,-88,602,-36,12,198,0,0,0,0,0,0,0,0,0,0,0
0,0,2074,5,-111,601,-35,12,176,0,0,0,0,0,0,0,0,0,0,0
0,0,2075,0,-104,602,-35,9,177,0,0,0,0,0,0,0,0,0,0,0
0,0,2068,4,-98,602,-35,11,182,0,0,0,0,0,0,0,0,0,0,0
0,0,2077,2,-93,603,-35,12,196,0,0,0,0,0,0,0,0,0,0,0
0,0,2069,2,-104,603,-35,13,178,0,0,0,0,0,0,0,0,0,0,0
0,0,2081,8,-97,602,-36,12,200,0,0,0,0,0,0,0,0,0,0,0
0,0,2071,5,-96,602,-37,11,186,0,0,0,0,0,0,0,0,0,0,0
0,0,2080,1,-91,603,-34,11,200,0,0,0,0,0,0,0,0,0,0,0
0,0,2080,3,-88,602,-35,12,204,0,0,0,0,0,0,0,0,0,0,0
0,0,2079,6,-102,603,-34,11,193,0,0,0,0,0,0,0,0,0,0,0
0,0,2075,4,-92,602,-35,12,196,0,0,0,0,0,0,0,0,0,0,0
0,0,2072,5,-106,603,-36,12,180,0,0,0,0,0,0,0,0,0,0,0
0,0,2074,-2,-109,603,-37,11,169,0,0,0,0,0,0,0,0,0,0,0
0,0,2072,1,-97,601,-36,12,183,0,0,0,0,0,0,0,0,0,0,0
0,0,2073,8,-95,602,-35,10,193,0,0,0,0,0,0,0,0,0,0,0
0,0,2077,5,-94,601,-36,11,194,0,0,0,0,0,0,0,0,0,0,0
0,0,2069,6,-96,603,-35,11,188,0,0,0,0,0,0,0,0,0,0,0
0,0,2072,1,-94,602,-35,11,187,0,0,0,0,0,0,0,0,0,0,0
0,0,2078,12,-96,603,-35,13,205,0,0,0,0,0,0,0,0,0,0,0
0,0,2072,3,-96,604,-36,12,189,0,0,0,0,0,0,0,0,0,0,0
0,0,2075,5,-102,602,-35,12,187,0,0,0,0,0,0,0,0,0,0,0
0,0,2081,5,-95,601,-36,12,198,0,0,0,0,0,0,0,0,0,0,0
0,0,2075,7,-93,602,-35,12,198,0,0,0,0,0,0,0,0,0,0,0
0,0,2080,-4,-90,602,-35,11,193,0,0,0,0,0,0,0,0,0,0,0
0,0,2077,-2,-99,603,-36,11,183,0,0,0,0,0,0,0,0,0,0,0
0,0,2079,7,-97,601,-34,11,197,0,0,0,0,0,0,0,0,0,0,0
0,0,2076,7,-101,602,-35,11,190,0,0,0,0,0,0,0,0,0,0,0
0,0,2076,7,-89,600,-37,11,198,0,0,0,0,0,0,0,0,0,0,0
0,0,2078,10,-97,603,-34,10,200,0,0,0,0,0,0,0,0,0,0,0
0,0,2068,5,-104,602,-35,11,177,0,0,0,0,0,0,0,0,0,0,0
0,0,2071,5,-98,601,-35,10,184,0,0,0,0,0,0,0,0,0,0,0
0,0,2072,2,-104,602,-34,13,181,0,0,0,0,0,0,0,0,0,0,0
0,0,2081,1,-108,602,-36,12,182,0,0,0,0,0,0,0,0,0,0,0
0,0,2077,5,-102,601,-36,11,186,0,0,0,0,0,0,0,0,0,0,0
0,0,2077,0,-97,601,-36,12,187,0,0,0,0,0,0,0,0,0,0,0
0,0,2076,1,-98,601,-34,11,187,0,0,0,0,0,0,0,0,0,0,0
0,0,2071,4,-96,602,-35,12,188,0,0,0,0,0,0,0,0,0,0,0
0,0,2081,6,-106,602,-37,12,188,0,0,0,0,0,0,0,0,0,0,0
0,0,2074,9,-115,602,-34,12,178,0,0,0,0,0,0,0,0,0,0,0
0,0,2079,-4,-100,603,-36,13,184,0,0,0,0,0,0,0,0,0,0,0
0,0,2067,-1,-108,601,-35,11,164,0,0,0,0,0,0,0,0,0,0,0
0,0,2076,1,-99,603,-34,10,187,0,0,0,0,0,0,0,0,0,0,0
0,0,2073,-1,-98,603,-35,11,182,0,0,0,0,0,0,0,0,0,0,0
0,0,2073,1,-96,601,-34,12,187,0,0,0,0,0,0,0,0,0,0,0
0,0,2080,2,-109,602,-35,12,182,0,0,0,0,0,0,0,0,0,0,0
0,0,2073,8,-93,603,-34,12,199,0,0,0,0,0,0,0,0,0,0,0
0,0,2076,6,-98,601,-34,13,194,0,0,0,0,0,0,0,0,0,0,0
0,0,2064,9,-104,603,-35,13,180,0,0,0,0,0,0,0,0,0,0,0
0,0,2071,7,-91,601,-35,12,195,0,0,0,0,0,0,0,0,0,0,0
0,0,2086,6,-94,602,-35,11,206,0,0,0,0,0,0,0,0,0,0,0
0,0,2070,5,-96,602,-35,10,186,0,0,0,0,0,0,0,0,0,0,0
0,0,2074,-2,-102,602,-36,11,176,0,0,0,0,0,0,0,0,0,0,0
0,0,2079,0,-106,603,-35,13,184,0,0,0,0,0,0,0,0,0,0,0
0,0,2072,12,-104,603,-35,11,189,0,0,0,0,0,0,0,0,0,0,0
0,0,2073,12,-94,602,-35,12,200,0,0,0,0,0,0,0,0,0,0,0
0,0,2078,5,-99,601,-34,13,194,0,0,0,0,0,0,0,0,0,0,0
0,0,2075,8,-97,601,-36,11,192,0,0,0,0,0,0,0,0,0,0,0
0,0,2070,3,-104,599,-36,12,174,0,0,0,0,0,0,0,0,0,0,0
0,0,2072,1,-100,603,-36,10,180,0,0,0,0,0,0,0,0,0,0,0
0,0,2075,5,-101,601,-36,11,185,0,0,0,0,0,0,0,0,0,0,0
0,0,2075,6,-107,602,-35,14,185,0,0,0,0,0,0,0,0,0,0,0
0,0,2078,3,-96,602,-35,12,194,0,0,0,0,0,0,0,0,0,0,0
0,0,2078,0,-97,602,-35,12,190,0,0,0,0,0,0,0,0,0,0,0
0,0,2081,-2,-99,601,-36,12,186,0,0,0,0,0,0,0,0,0,0,0
0,0,2077,11,-106,602,-37,13,190,0,0,0,0,0,0,0,0,0,0,0
0,0,2079,9,-103,603,-37,11,192,0,0,0,0,0,0,0,0,0,0,0
0,0,2074,-1,-106,602,-34,12,176,0,0,0,0,0,0,0,0,0,0,0
0,0,2073,-2,-104,601,-34,12,175,0,0,0,0,0,0,0,0,0,0,0
0,0,2075,9,-100,603,-36,12,193,0,0,0,0,0,0,0,0,0,0,0
0,0,2072,12,-105,601,-37,13,186,0,0,0,0,0,0,0,0,0,0,0
0,0,2072,3,-97,601,-35,11,185,0,0,0,0,0,0,0,0,0,0,0
0,0,2077,14,-102,600,-36,10,193,0,0,0,0,0,0,0,0,0,0,0
0,0,2076,8,-93,602,-35,11,199,0,0,0,0,0,0,0,0,0,0,0
0,0,2076,10,-112,601,-36,12,181,0,0,0,0,0,0,0,0,0,0,0
0,0,2077,3,-103,603,-35,10,185,0,0,0,0,0,0,0,0,0,0,0
0,0,2072,11,-99,603,-35,11,193,0,0,0,0,0,0,0,0,0,0,0
0,0,2075,3,-94,603,-35,12,194,0,0,0,0,0,0,0,0,0,0,0
0,0,2081,14,-94,603,-34,12,212,0,0,0,0,0,0,0,0,0,0,0
0,0,2072,-3,-93,604,-36,11,184,0,0,0,0,0,0,0,0,0,0,0
0,0,2071,5,-99,602,-35,12,186,0,0,0,0,0,0,0,0,0,0,0
0,0,2075,5,-98,602,-34,12,192,0,0,0,0,0,0,0,0,0,0,0
0,0,2077,2,-104,602,-36,12,183,0,0,0,0,0,0,0,0,0,0,0
0,0,2074,0,-111,602,-35,10,170,0,0,0,0,0,0,0,0,0,0,0
0,0,2070,4,-99,601,-36,13,183,0,0,0,0,0,0,0,0,0,0,0
0,0,2073,6,-91,602,-35,12,197,0,0,0,0,0,0,0,0,0,0,0
0,0,2073,2,-103,603,-36,12,181,0,0,0,0,0,0,0,0,0,0,0
0,0,2072,13,-96,602,-35,10,196,0,0,0,0,0,0,0,0,0,0,0
0,0,2073,3,-94,601,-36,10,187,0,0,0,0,0,0,0,0,0,0,0
0,0,2072,3,-108,601,-36,13,175,0,0,0,0,0,0,0,0,0,0,0
0,0,2074,0,-97,601,-35,13,186,0,0,0,0,0,0,0,0,0,0,0
0,0,2063,0,-100,603,-35,11,172,0,0,0,0,0,0,0,0,0,0,0
0,0,2073,-1,-100,601,-35,11,178,0,0,0,0,0,0,0,0,0,0,0
0,0,2076,0,-105,602,-34,11,180,0,0,0,0,0,0,0,0,0,0,0
0,0,2081,6,-97,601,-34,11,198,0,0,0,0,0,0,0,0,0,0,0
0,0,2074,-3,-95,602,-35,10,182,0,0,0,0,0,0,0,0,0,0,0
0,0,2074,1,-91,603,-34,12,195,0,0,0,0,0,0,0,0,0,0,0
0,0,2076,1,-98,602,-36,10,185,0,0,0,0,0,0,0,0,0,0,0
0,0,2078,-1,-96,603,-35,11,189,0,0,0,0,0,0,0,0,0,0,0
0,0,2077,9,-87,602,-35,11,207,0,0,0,0,0,0,0,0,0,0,0
0,0,2077,6,-104,602,-35,11,187,0,0,0,0,0,0,0,0,0,0,0
0,0,2066,2,-91,602,-35,11,185,0,0,0,0,0,0,0,0,0,0,0
0,0,2082,1,-97,602,-34,11,195,0,0,0,0,0,0,0,0,0,0,0
0,0,2080,1,-89,602,-36,11,199,0,0,0,0,0,0,0,0,0,0,0
0,0,2074,7,-98,602,-35,11,191,0,0,0,0,0,0,0,0,0,0,0
0,0,2070,-1,-94,602,-34,12,184,0,0,0,0,0,0,0,0,0,0,0
0,0,2075,1,-93,601,-35,14,193,0,0,0,0,0,0,0,0,0,0,0
0,0,2077,6,-90,602,-35,11,201,0,0,0,0,0,0,0,0,0,0,0
0,0,2074,-5,-97,602,-35,11,179,0,0,0,0,0,0,0,0,0,0,0
0,0,2077,-4,-97,602,-35,12,184,0,0,0,0,0,0,0,0,0,0,0
0,0,2069,0,-95,600,-34,11,181,0,0,0,0,0,0,0,0,0,0,0
0,0,2073,3,-103,603,-35,13,184,0,0,0,0,0,0,0,0,0,0,0
0,0,2075,-2,-105,602,-36,11,174,0,0,0,0,0,0,0,0,0,0,0
0,0,2071,4,-96,603,-36,11,187,0,0,0,0,0,0,0,0,0,0,0
0,0,2080,3,-100,601,-36,14,192,0,0,0,0,0,0,0,0,0,0,0
0,0,2075,0,-97,604,-35,11,188,0,0,0,0,0,0,0,0,0,0,0
0,0,2070,5,-93,604,-35,12,193,0,0,0,0,0,0,0,0,0,0,0
0,0,2075,1,-97,600,-35,11,185,0,0,0,0,0,0,0,0,0,0,0
0,0,2081,4,-94,600,-36,12,197,0,0,0,0,0,0,0,0,0,0,0
0,0,2075,10,-97,600,-35,13,196,0,0,0,0,0,0,0,0,0,0,0
0,0,2070,6,-106,601,-36,10,175,0,0,0,0,0,0,0,0,0,0,0
0,0,2070,0,-102,601,-36,10,173,0,0,0,0,0,0,0,0,0,0,0
0,0,2072,5,-97,602,-36,10,186,0,0,0,0,0,0,0,0,0,0,0
0,0,2077,17,-99,602,-35,11,203,0,0,0,0,0,0,0,0,0,0,0
0,0,2075,2,-95,602,-35,11,190,0,0,0,0,0,0,0,0,0,0,0
0,0,2077,4,-101,602,-34,12,190,0,0,0,0,0,0,0,0,0,0,0
0,0,2071,5,-94,603,-36,11,190,0,0,0,0,0,0,0,0,0,0,0
0,0,2074,11,-99,604,-35,11,196,0,0,0,0,0,0,0,0,0,0,0
0,0,2075,1,-114,603,-35,14,174,0,0,0,0,0,0,0,0,0,0,0
0,0,2078,7,-99,603,-34,12,197,0,0,0,0,0,0,0,0,0,0,0
0,0,2070,4,-89,604,-34,13,198,0,0,0,0,0,0,0,0,0,0,0
0,0,2075,3,-104,601,-35,10,180,0,0,0,0,0,0,0,0,0,0,0
0,0,2068,-1,-102,600,-36,12,170,0,0,0,0,0,0,0,0,0,0,0
0,0,2072,-2,-113,601,-34,12,165,0,0,0,0,0,0,0,0,0,0,0
0,0,2079,11,-105,601,-35,10,191,0,0,0,0,0,0,0,0,0,0,0
0,0,2076,5,-96,603,-34,12,196,0,0,0,0,0,0,0,0,0,0,0
0,0,2076,10,-91,602,-36,13,204,0,0,0,0,0,0,0,0,0,0,0
0,0,2078,12,-108,602,-35,11,190,0,0,0,0,0,0,0,0,0,0,0
0,0,2075,1,-105,601,-35,11,178,0,0,0,0,0,0,0,0,0,0,0
0,0,2069,3,-94,599,-34,13,186,0,0,0,0,0,0,0,0,0,0,0
0,0,2082,13,-100,603,-35,11,204,0,0,0,0,0,0,0,0,0,0,0
0,0,2078,-6,-99,601,-37,12,178,0,0,0,0,0,0,0,0,0,0,0
0,0,2077,0,-97,604,-36,12,190,0,0,0,0,0,0,0,0,0,0,0
0,0,2070,2,-101,602,-35,11,179,0,0,0,0,0,0,0,0,0,0,0
0,0,2073,-2,-102,603,-37,11,175,0,0,0,0,0,0,0,0,0,0,0
0,0,2082,0,-105,602,-34,12,187,0,0,0,0,0,0,0,0,0,0,0
0,0,2074,-2,-101,603,-35,11,179,0,0,0,0,0,0,0,0,0,0,0
0,0,2076,2,-95,604,-34,13,196,0,0,0,0,0,0,0,0,0,0,0
0,0,2077,4,-98,603,-35,11,192,0,0,0,0,0,0,0,0,0,0,0
0,0,2076,8,-94,601,-34,12,199,0,0,0,0,0,0,0,0,0,0,0
0,0,2071,9,-93,604,-36,12,197,0,0,0,0,0,0,0,0,0,0,0
0,0,2083,6,-89,603,-35,14,212,0,0,0,0,0,0,0,0,0,0,0
0,0,2079,6,-101,603,-33,9,193,0,0,0,0,0,0,0,0,0,0,0
0,0,2072,6,-98,602,-37,12,187,0,0,0,0,0,0,0,0,0,0,0
0,0,2075,-3,-103,602,-34,10,176,0,0,0,0,0,0,0,0,0,0,0
0,0,2078,3,-101,603,-35,12,190,0,0,0,0,0,0,0,0,0,0,0
0,0,2071,1,-97,603,-35,14,187,0,0,0,0,0,0,0,0,0,0,0
0,0,2068,4,-89,602,-36,11,190,0,0,0,0,0,0,0,0,0,0,0
0,0,2072,1,-97,604,-35,11,186,0,0,0,0,0,0,0,0,0,0,0
0,0,2076,-2,-108,602,-36,11,172,0,0,0,0,0,0,0,0,0,0,0
0,0,2082,7,-98,602,-35,11,199,0,0,0,0,0,0,0,0,0,0,0
0,0,2070,6,-99,603,-34,10,186,0,0,0,0,0,0,0,0,0,0,0
0,0,2078,8,-99,602,-36,11,194,0,0,0,0,0,0,0,0,0,0,0
0,0,2077,0,-87,602,-35,13,200,0,0,0,0,0,0,0,0,0,0,0
0,0,2075,6,-106,601,-35,11,182,0,0,0,0,0,0,0,0,0,0,0
0,0,2074,7,-100,603,-34,12,192,0,0,0,0,0,0,0,0,0,0,0
0,0,2080,2,-95,603,-35,13,198,0,0,0,0,0,0,0,0,0,0,0
0,0,2075,3,-97,602,-36,9,186,0,0,0,0,0,0,0,0,0,0,0
0,0,2074,1,-112,601,-35,11,170,0,0,0,0,0,0,0,0,0,0,0
0,0,2083,8,-98,603,-34,11,203,0,0,0,0,0,0,0,0,0,0,0
0,0,2076,4,-96,602,-36,13,193,0,0,0,0,0,0,0,0,0,0,0
0,0,2071,2,-108,602,-36,13,174,0,0,0,0,0,0,0,0,0,0,0
0,0,2077,4,-95,601,-35,11,193,0,0,0,0,0,0,0,0,0,0,0
0,0,2066,14,-92,601,-34,13,198,0,0,0,0,0,0,0,0,0,0,0
0,0,2074,3,-97,603,-35,10,188,0,0,0,0,0,0,0,0,0,0,0
0,0,2074,7,-100,603,-37,11,188,0,0,0,0,0,0,0,0,0,0,0
0,0,2069,7,-89,603,-35,12,197,0,0,0,0,0,0,0,0,0,0,0
0,0,2078,2,-103,603,-35,11,186,0,0,0,0,0,0,0,0,0,0,0
0,0,2087,5,-90,603,-34,12,213,0,0,0,0,0,0,0,0,0,0,0
0,0,2075,7,-93,601,-33,12,199,0,0,0,0,0,0,0,0,0,0,0
0,0,2080,10,-94,602,-35,12,205,0,0,0,0,0,0,0,0,0,0,0
0,0,2071,7,-96,603,-35,11,191,0,0,0,0,0,0,0,0,0,0,0
0,0,2072,2,-103,604,-35,13,183,0,0,0,0,0,0,0,0,0,0,0
0,0,2081,-2,-98,601,-34,12,189,0,0,0,0,0,0,0,0,0,0,0
0,0,2070,4,-100,604,-34,12,186,0,0,0,0,0,0,0,0,0,0,0
0,0,2080,7,-83,603,-34,11,214,0,0,0,0,0,0,0,0,0,0,0
0,0,2075,8,-106,601,-34,11,185,0,0,0,0,0,0,0,0,0,0,0
0,0,2066,10,-96,602,-35,11,188,0,0,0,0,0,0,0,0,0,0,0
0,0,2071,0,-101,601,-34,11,178,0,0,0,0,0,0,0,0,0,0,0
0,0,2073,10,-97,603,-36,13,196,0,0,0,0,0,0,0,0,0,0,0
0,0,2075,9,-95,604,-35,12,200,0,0,0,0,0,0,0,0,0,0,0
0,0,2076,5,-104,604,-35,12,188,0,0,0,0,0,0,0,0,0,0,0
0,0,2080,3,-88,603,-35,13,206,0,0,0,0,0,0,0,0,0,0,0
0,0,2073,8,-97,603,-37,13,193,0,0,0,0,0,0,0,0,0,0,0
0,0,2078,3,-101,603,-34,11,190,0,0,0,0,0,0,0,0,0,0,0
0,0,2074,6,-92,602,-36,11,195,0,0,0,0,0,0,0,0,0,0,0
0,0,2076,2,-92,601,-35,11,193,0,0,0,0,0,0,0,0,0,0,0
0,0,2078,9,-100,603,-34,10,196,0,0,0,0,0,0,0,0,0,0,0
0,0,2079,2,-97,602,-34,12,194,0,0,0,0,0,0,0,0,0,0,0
0,0,2073,8,-99,602,-35,11,190,0,0,0,0,0,0,0,0,0,0,0
0,0,2078,0,-97,602,-36,12,189,0,0,0,0,0,0,0,0,0,0,0
0,0,2077,-1,-106,604,-34,12,181,0,0,0,0,0,0,0,0,0,0,0
0,0,2069,4,-98,603,-35,12,185,0,0,0,0,0,0,0,0,0,0,0
0,0,2071,3,-105,603,-37,12,177,0,0,0,0,0,0,0,0,0,0,0
0,0,2080,1,-108,602,-36,12,181,0,0,0,0,0,0,0,0,0,0,0
0,0,2073,-2,-109,600,-34,11,168,0,0,0,0,0,0,0,0,0,0,0
0,0,2076,0,-88,602,-34,11,197,0,0,0,0,0,0,0,0,0,0,0
0,0,2074,9,-92,603,-37,9,196,0,0,0,0,0,0,0,0,0,0,0
0,0,2078,6,-92,602,-36,10,198,0,0,0,0,0,0,0,0,0,0,0
0,0,2080,1,-99,601,-36,12,189,0,0,0,0,0,0,0,0,0,0,0
0,0,2078,0,-99,602,-36,12,187,0,0,0,0,0,0,0,0,0,0,0
0,0,2067,5,-83,601,-34,11,197,0,0,0,0,0,0,0,0,0,0,0
0,0,2082,5,-102,601,-36,11,191,0,0,0,0,0,0,0,0,0,0,0
0,0,2075,12,-101,600,-37,12,191,0,0,0,0,0,0,0,0,0,0,0
0,0,2077,1,-102,601,-36,10,181,0,0,0,0,0,0,0,0,0,0,0
0,0,2070,7,-97,602,-34,12,190,0,0,0,0,0,0,0,0,0,0,0
0,0,2076,5,-87,601,-37,11,199,0,0,0,0,0,0,0,0,0,0,0
0,0,2075,2,-87,602,-35,13,200,0,0,0,0,0,0,0,0,0,0,0
0,0,2072,7,-98,602,-35,13,191,0,0,0,0,0,0,0,0,0,0,0
0,0,2080,2,-90,602,-33,11,202,0,0,0,0,0,0,0,0,0,0,0
0,0,2079,0,-90,601,-36,11,195,0,0,0,0,0,0,0,0,0,0,0
0,0,2071,0,-105,602,-35,11,174,0,0,0,0,0,0,0,0,0,0,0
0,0,2073,4,-103,603,-35,11,183,0,0,0,0,0,0,0,0,0,0,0
0,0,2079,2,-104,601,-36,11,183,0,0,0,0,0,0,0,0,0,0,0
0,0,2075,12,-89,602,-36,11,205,0,0,0,0,0,0,0,0,0,0,0
0,0,2070,8,-100,601,-35,13,187,0,0,0,0,0,0,0,0,0,0,0
0,0,2073,2,-103,603,-35,13,183,0,0,0,0,0,0,0,0,0,0,0
0,0,2072,5,-97,602,-35,11,188,0,0,0,0,0,0,0,0,0,0,0
0,0,2077,5,-105,602,-35,11,185,0,0,0,0,0,0,0,0,0,0,0
0,0,2073,9,-95,603,-37,12,195,0,0,0,0,0,0,0,0,0,0,0
0,0,2079,5,-91,604,-35,10,202,0,0,0,0,0,0,0,0,0,0,0
0,0,2082,9,-83,601,-35,12,216,0,0,0,0,0,0,0,0,0,0,0
0,0,2082,8,-98,602,-36,11,199,0,0,0,0,0,0,0,0,0,0,0
0,0,2080,2,-95,601,-34,9,193,0,0,0,0,0,0,0,0,0,0,0
0,0,2078,7,-101,601,-34,12,193,0,0,0,0,0,0,0,0,0,0,0
0,0,2076,6,-96,601,-35,11,193,0,0,0,0,0,0,0,0,0,0,0
0,0,2074,5,-105,602,-33,12,185,0,0,0,0,0,0,0,0,0,0,0
0,0,2071,6,-97,602,-35,12,189,0,0,0,0,0,0,0,0,0,0,0
0,0,2065,5,-96,602,-35,12,183,0,0,0,0,0,0,0,0,0,0,0
0,0,2074,9,-99,602,-33,10,193,0,0,0,0,0,0,0,0,0,0,0
0,0,2075,7,-92,602,-34,12,200,0,0,0,0,0,0,0,0,0,0,0
0,0,2084,3,-86,602,-35,11,209,0,0,0,0,0,0,0,0,0,0,0
0,0,2070,9,-94,602,-33,11,195,0,0,0,0,0,0,0,0,0,0,0
0,0,2072,2,-104,602,-36,10,176,0,0,0,0,0,0,0,0,0,0,0
0,0,2076,0,-88,602,-35,12,197,0,0,0,0,0,0,0,0,0,0,0
0,0,2069,7,-96,602,-35,11,188,0,0,0,0,0,0,0,0,0,0,0
0,0,2070,-2,-105,602,-35,12,171,0,0,0,0,0,0,0,0,0,0,0
0,0,2063,0,-93,604,-34,12,182,0,0,0,0,0,0,0,0,0,0,0
0,0,2069,-1,-89,602,-34,10,186,0,0,0,0,0,0,0,0,0,0,0
0,0,2072,3,-97,601,-35,13,187,0,0,0,0,0,0,0,0,0,0,0
0,0,2071,4,-96,600,-35,12,186,0,0,0,0,0,0,0,0,0,0,0
0,0,2072,9,-98,602,-36,12,191,0,0,0,0,0,0,0,0,0,0,0
0,0,2075,10,-100,602,-35,11,193,0,0,0,0,0,0,0,0,0,0,0
0,0,2072,2,-95,602,-36,12,187,0,0,0,0,0,0,0,0,0,0,0
0,0,2076,11,-101,600,-35,12,193,0,0,0,0,0,0,0,0,0,0,0
0,0,2079,3,-98,601,-36,13,192,0,0,0,0,0,0,0,0,0,0,0
0,0,2077,6,-91,602,-37,12,199,0,0,0,0,0,0,0,0,0,0,0
0,0,2078,5,-94,601,-35,12,197,0,0,0,0,0,0,0,0,0,0,0
0,0,2076,7,-102,602,-37,12,188,0,0,0,0,0,0,0,0,0,0,0
0,0,2079,-6,-98,602,-36,13,183,0,0,0,0,0,0,0,0,0,0,0
0,0,2074,-3,-98,602,-36,12,180,0,0,0,0,0,0,0,0,0,0,0
0,0,2075,-1,-109,601,-35,11,171,0,0,0,0,0,0,0,0,0,0,0
0,0,2074,-8,-102,602,-35,13,173,0,0,0,0,0,0,0,0,0,0,0
0,0,2073,2,-94,602,-34,11,190,0,0,0,0,0,0,0,0,0,0,0
0,0,2074,7,-101,604,-36,11,189,0,0,0,0,0,0,0,0,0,0,0
0,0,2073,4,-105,603,-36,11,180,0,0,0,0,0,0,0,0,0,0,0
0,0,2072,-6,-94,602,-36,10,177,0,0,0,0,0,0,0,0,0,0,0
0,0,2077,8,-101,602,-35,12,193,0,0,0,0,0,0,0,0,0,0,0
0,0,2074,7,-98,602,-35,13,193,0,0,0,0,0,0,0,0,0,0,0
0,0,2076,0,-100,602,-34,12,186,0,0,0,0,0,0,0,0,0,0,0
0,0,2073,11,-109,603,-35,12,185,0,0,0,0,0,0,0,0,0,0,0
0,0,2070,3,-104,603,-36,12,178,0,0,0,0,0,0,0,0,0,0,0
0,0,2078,10,-112,603,-35,12,186,0,0,0,0,0,0,0,0,0,0,0
0,0,2069,4,-112,601,-35,11,168,0,0,0,0,0,0,0,0,0,0,0
0,0,2070,0,-100,600,-36,11,175,0,0,0,0,0,0,0,0,0,0,0
0,0,2074,4,-100,602,-35,11,186,0,0,0,0,0,0,0,0,0,0,0
0,0,2076,6,-111,601,-35,11,178,0,0,0,0,0,0,0,0,0,0,0
0,0,2074,7,-97,602,-35,11,192,0,0,0,0,0,0,0,0,0,0,0
0,0,2073,1,-91,602,-37,13,191,0,0,0,0,0,0,0,0,0,0,0
0,0,2067,-1,-92,602,-35,12,182,0,0,0,0,0,0,0,0,0,0,0
0,0,2070,-1,-98,601,-34,13,180,0,0,0,0,0,0,0,0,0,0,0
0,0,2075,7,-98,603,-36,11,192,0,0,0,0,0,0,0,0,0,0,0
0,0,2080,3,-106,602,-35,11,185,0,0,0,0,0,0,0,0,0,0,0
0,0,2075,9,-107,602,-35,12,186,0,0,0,0,0,0,0,0,0,0,0
0,0,2076,7,-101,602,-35,12,191,0,0,0,0,0,0,0,0,0,0,0
0,0,2076,-2,-94,602,-35,11,187,0,0,0,0,0,0,0,0,0,0,0
0,0,2070,2,-99,602,-37,12,180,0,0,0,0,0,0,0,0,0,0,0
0,0,2077,8,-94,602,-35,11,199,0,0,0,0,0,0,0,0,0,0,0
0,0,2085,3,-100,602,-34,12,198,0,0,0,0,0,0,0,0,0,0,0
0,0,2083,9,-102,604,-33,12,203,0,0,0,0,0,0,0,0,0,0,0
0,0,2076,7,-97,602,-35,10,193,0,0,0,0,0,0,0,0,0,0,0
0,0,2078,13,-98,602,-35,12,202,0,0,0,0,0,0,0,0,0,0,0
0,0,2076,5,-108,602,-35,10,180,0,0,0,0,0,0,0,0,0,0,0
0,0,2068,1,-100,603,-35,12,179,0,0,0,0,0,0,0,0,0,0,0
0,0,2080,-2,-109,603,-35,13,179,0,0,0,0,0,0,0,0,0,0,0
0,0,2078,6,-111,603,-35,13,184,0,0,0,0,0,0,0,0,0,0,0
0,0,2076,4,-90,602,-35,12,199,0,0,0,0,0,0,0,0,0,0,0
0,0,2076,1,-98,601,-35,11,186,0,0,0,0,0,0,0,0,0,0,0
0,0,2076,10,-102,603,-35,12,194,0,0,0,0,0,0,0,0,0,0,0
0,0,2076,5,-107,603,-36,12,183,0,0,0,0,0,0,0,0,0,0,0
0,0,2073,4,-97,601,-36,12,187,0,0,0,0,0,0,0,0,0,0,0
0,0,2072,4,-97,602,-35,10,186,0,0,0,0,0,0,0,0,0,0,0
0,0,2070,2,-100,602,-36,13,181,0,0,0,0,0,0,0,0,0,0,0
0,0,2074,6,-99,601,-35,11,188,0,0,0,0,0,0,0,0,0,0,0
0,0,2074,9,-99,602,-35,13,194,0,0,0,0,0,0,0,0,0,0,0
0,0,2064,5,-106,602,-35,12,172,0,0,0,0,0,0,0,0,0,0,0
0,0,2078,0,-92,603,-35,12,196,0,0,0,0,0,0,0,0,0,0,0
0,0,2072,0,-97,603,-37,11,182,0,0,0,0,0,0,0,0,0,0,0
0,0,2074,9,-97,603,-38,12,193,0,0,0,0,0,0,0,0,0,0,0
0,0,2073,6,-112,603,-36,11,175,0,0,0,0,0,0,0,0,0,0,0
0,0,2070,10,-94,602,-34,12,196,0,0,0,0,0,0,0,0,0,0,0
0,0,2076,14,-108,604,-35,10,191,0,0,0,0,0,0,0,0,0,0,0
0,0,2072,-6,-93,601,-34,12,181,0,0,0,0,0,0,0,0,0,0,0
0,0,2082,2,-80,603,-36,12,213,0,0,0,0,0,0,0,0,0,0,0
0,0,2069,5,-97,601,-35,11,184,0,0,0,0,0,0,0,0,0,0,0
0,0,2079,-2,-92,601,-35,11,191,0,0,0,0,0,0,0,0,0,0,0
0,0,2076,4,-97,602,-36,12,191,0,0,0,0,0,0,0,0,0,0,0
0,0,2074,3,-96,601,-35,11,188,0,0,0,0,0,0,0,0,0,0,0
0,0,2080,3,-96,602,-35,11,195,0,0,0,0,0,0,0,0,0,0,0
0,0,2070,4,-98,603,-37,11,183,0,0,0,0,0,0,0,0,0,0,0
0,0,2071,11,-93,602,-35,12,198,0,0,0,0,0,0,0,0,0,0,0
0,0,2081,8,-100,603,-35,12,199,0,0,0,0,0,0,0,0,0,0,0
0,0,2071,2,-100,602,-35,11,181,0,0,0,0,0,0,0,0,0,0,0
0,0,2071,4,-91,602,-35,13,194,0,0,0,0,0,0,0,0,0,0,0
0,0,2076,0,-101,601,-35,11,182,0,0,0,0,0,0,0,0,0,0,0
0,0,2070,6,-94,604,-34,14,196,0,0,0,0,0,0,0,0,0,0,0
0,0,2073,9,-96,601,-34,11,194,0,0,0,0,0,0,0,0,0,0,0
0,0,2077,9,-102,603,-35,12,194,0,0,0,0,0,0,0,0,0,0,0
0,0,2070,10,-91,601,-35,10,195,0,0,0,0,0,0,0,0,0,0,0
0,0,2076,8,-107,604,-34,12,189,0,0,0,0,0,0,0,0,0,0,0
0,0,2078,9,-108,602,-35,12,188,0,0,0,0,0,0,0,0,0,0,0
0,0,2075,3,-93,601,-34,12,194,0,0,0,0,0,0,0,0,0,0,0
0,0,2075,4,-105,600,-34,12,182,0,0,0,0,0,0,0,0,0,0,0
0,0,2071,8,-92,601,-34,11,195,0,0,0,0,0,0,0,0,0,0,0
0,0,2077,10,-93,602,-36,11,201,0,0,0,0,0,0,0,0,0,0,0
0,0,2078,6,-95,603,-34,12,200,0,0,0,0,0,0,0,0,0,0,0
0,0,2071,9,-101,603,-35,13,190,0,0,0,0,0,0,0,0,0,0,0
0,0,2072,2,-97,601,-36,11,183,0,0,0,0,0,0,0,0,0,0,0
0,0,2072,4,-101,603,-34,13,187,0,0,0,0,0,0,0,0,0,0,0
0,0,2076,3,-103,603,-36,11,184,0,0,0,0,0,0,0,0,0,0,0
0,0,2075,7,-115,601,-35,12,175,0,0,0,0,0,0,0,0,0,0,0
0,0,2073,15,-93,601,-35,12,203,0,0,0,0,0,0,0,0,0,0,0
0,0,2074,0,-102,600,-36,12,178,0,0,0,0,0,0,0,0,0,0,0
0,0,2078,3,-94,600,-35,13,195,0,0,0,0,0,0,0,0,0,0,0
0,0,2075,8,-97,601,-36,11,192,0,0,0,0,0,0,0,0,0,0,0
0,0,2073,2,-102,600,-35,12,180,0,0,0,0,0,0,0,0,0,0,0
0,0,2075,-1,-98,601,-35,11,182,0,0,0,0,0,0,0,0,0,0,0
0,0,2083,3,-96,601,-34,11,198,0,0,0,0,0,0,0,0,0,0,0
0,0,2074,4,-100,600,-35,13,186,0,0,0,0,0,0,0,0,0,0,0
0,0,2074,0,-92,601,-35,12,190,0,0,0,0,0,0,0,0,0,0,0
0,0,2076,5,-103,603,-35,11,187,0,0,0,0,0,0,0,0,0,0,0
0,0,2077,-3,-92,602,-33,10,190,0,0,0,0,0,0,0,0,0,0,0
0,0,2069,-1,-94,602,-36,10,179,0,0,0,0,0,0,0,0,0,0,0
0,0,2073,10,-113,602,-36,13,179,0,0,0,0,0,0,0,0,0,0,0
0,0,2079,8,-96,601,-35,13,200,0,0,0,0,0,0,0,0,0,0,0
0,0,2081,-5,-96,603,-34,11,189,0,0,0,0,0,0,0,0,0,0,0
0,0,2075,5,-94,603,-34,12,197,0,0,0,0,0,0,0,0,0,0,0
0,0,2075,0,-104,604,-35,11,181,0,0,0,0,0,0,0,0,0,0,0
0,0,2077,4,-104,601,-36,12,184,0,0,0,0,0,0,0,0,0,0,0
0,0,2077,0,-97,603,-35,13,191,0,0,0,0,0,0,0,0,0,0,0
0,0,2083,6,-93,601,-35,13,205,0,0,0,0,0,0,0,0,0,0,0
0,0,2075,9,-93,600,-34,13,200,0,0,0,0,0,0,0,0,0,0,0
0,0,2075,0,-99,602,-35,11,184,0,0,0,0,0,0,0,0,0,0,0
0,0,2078,0,-94,602,-34,11,193,0,0,0,0,0,0,0,0,0,0,0
0,0,2074,6,-96,602,-35,12,193,0,0,0,0,0,0,0,0,0,0,0
0,0,2074,4,-96,602,-36,11,189,0,0,0,0,0,0,0,0,0,0,0
0,0,2076,4,-103,603,-34,12,188,0,0,0,0,0,0,0,0,0,0,0
0,0,2075,7,-109,602,-33,13,185,0,0,0,0,0,0,0,0,0,0,0
0,0,2076,2,-99,605,-36,11,189,0,0,0,0,0,0,0,0,0,0,0
0,0,2066,9,-98,600,-38,11,180,0,0,0,0,0,0,0,0,0,0,0
0,0,2081,3,-98,602,-36,10,192,0,0,0,0,0,0,0,0,0,0,0
0,0,2074,7,-96,602,-35,11,193,0,0,0,0,0,0,0,0,0,0,0
0,0,2071,-1,-93,603,-35,11,185,0,0,0,0,0,0,0,0,0,0,0
0,0,2070,3,-97,602,-35,11,184,0,0,0,0,0,0,0,0,0,0,0
0,0,2076,6,-104,603,-35,12,188,0,0,0,0,0,0,0,0,0,0,0
0,0,2075,5,-103,603,-37,12,185,0,0,0,0,0,0,0,0,0,0,0
0,0,2072,0,-88,604,-35,12,195,0,0,0,0,0,0,0,0,0,0,0
0,0,2071,1,-90,602,-34,13,193,0,0,0,0,0,0,0,0,0,0,0
0,0,2078,7,-95,603,-35,10,198,0,0,0,0,0,0,0,0,0,0,0
0,0,2074,11,-92,601,-35,10,199,0,0,0,0,0,0,0,0,0,0,0
0,0,2071,10,-93,601,-37,11,193,0,0,0,0,0,0,0,0,0,0,0
0,0,2080,7,-92,600,-36,13,202,0,0,0,0,0,0,0,0,0,0,0
0,0,2074,5,-100,602,-36,11,186,0,0,0,0,0,0,0,0,0,0,0
0,0,2075,9,-95,602,-35,10,196,0,0,0,0,0,0,0,0,0,0,0
0,0,2076,-3,-103,601,-36,12,176,0,0,0,0,0,0,0,0,0,0,0
0,0,2066,8,-103,601,-35,12,179,0,0,0,0,0,0,0,0,0,0,0
0,0,2070,6,-100,602,-34,12,186,0,0,0,0,0,0,0,0,0,0,0
0,0,2072,5,-96,603,-36,10,188,0,0,0,0,0,0,0,0,0,0,0
0,0,2079,8,-99,603,-35,11,197,0,0,0,0,0,0,0,0,0,0,0
0,0,2082,5,-98,603,-35,8,195,0,0,0,0,0,0,0,0,0,0,0
0,0,2068,7,-97,602,-36,10,184,0,0,0,0,0,0,0,0,0,0,0
0,0,2074,9,-97,601,-37,11,191,0,0,0,0,0,0,0,0,0,0,0
0,0,2074,9,-87,599,-36,11,200,0,0,0,0,0,0,0,0,0,0,0
0,0,2076,4,-91,604,-36,13,200,0,0,0,0,0,0,0,0,0,0,0
0,0,2075,-2,-91,603,-33,11,192,0,0,0,0,0,0,0,0,0,0,0
0,0,2076,1,-107,602,-35,11,178,0,0,0,0,0,0,0,0,0,0,0
0,0,2072,1,-93,601,-37,11,185,0,0,0,0,0,0,0,0,0,0,0
0,0,2078,6,-95,603,-35,11,198,0,0,0,0,0,0,0,0,0,0,0
0,0,2070,-2,-97,605,-35,10,180,0,0,0,0,0,0,0,0,0,0,0
0,0,2081,3,-99,603,-34,12,196,0,0,0,0,0,0,0,0,0,0,0
0,0,2079,7,-97,603,-36,10,196,0,0,0,0,0,0,0,0,0,0,0
0,0,2079,-1,-106,602,-34,12,181,0,0,0,0,0,0,0,0,0,0,0
0,0,2076,4,-108,603,-35,12,182,0,0,0,0,0,0,0,0,0,0,0
0,0,2073,11,-103,602,-36,13,190,0,0,0,0,0,0,0,0,0,0,0
0,0,2071,0,-107,602,-35,11,172,0,0,0,0,0,0,0,0,0,0,0
0,0,2073,2,-98,603,-34,13,189,0,0,0,0,0,0,0,0,0,0,0
0,0,2070,4,-103,602,-36,13,180,0,0,0,0,0,0,0,0,0,0,0
0,0,2073,4,-100,602,-37,10,182,0,0,0,0,0,0,0,0,0,0,0
0,0,2075,5,-96,600,-36,13,191,0,0,0,0,0,0,0,0,0,0,0
0,0,2078,7,-109,601,-36,12,183,0,0,0,0,0,0,0,0,0,0,0
0,0,2073,3,-105,602,-35,11,179,0,0,0,0,0,0,0,0,0,0,0
0,0,2071,8,-92,601,-35,11,194,0,0,0,0,0,0,0,0,0,0,0
0,0,2074,-4,-97,603,-36,10,179,0,0,0,0,0,0,0,0,0,0,0
0,0,2073,2,-100,602,-37,9,179,0,0,0,0,0,0,0,0,0,0,0
0,0,2077,1,-101,601,-36,11,183,0,0,0,0,0,0,0,0,0,0,0
0,0,2077,6,-95,600,-35,12,195,0,0,0,0,0,0,0,0,0,0,0
0,0,2073,-8,-100,602,-36,9,169,0,0,0,0,0,0,0,0,0,0,0
0,0,2080,5,-100,602,-36,13,194,0,0,0,0,0,0,0,0,0,0,0
0,0,2068,10,-100,602,-35,12,187,0,0,0,0,0,0,0,0,0,0,0
0,0,2076,6,-113,604,-36,12,179,0,0,0,0,0,0,0,0,0,0,0
0,0,2077,6,-95,601,-36,12,195,0,0,0,0,0,0,0,0,0,0,0
0,0,2078,6,-98,603,-35,12,196,0,0,0,0,0,0,0,0,0,0,0
0,0,2076,-2,-98,603,-34,12,186,0,0,0,0,0,0,0,0,0,0,0
0,0,2078,4,-110,602,-34,12,182,0,0,0,0,0,0,0,0,0,0,0
0,0,2082,1,-111,605,-37,13,183,0,0,0,0,0,0,0,0,0,0,0
0,0,2082,-4,-96,602,-34,13,192,0,0,0,0,0,0,0,0,0,0,0
0,0,2082,8,-106,602,-35,10,191,0,0,0,0,0,0,0,0,0,0,0
0,0,2071,2,-93,601,-36,11,186,0,0,0,0,0,0,0,0,0,0,0
0,0,2072,6,-100,603,-35,11,187,0,0,0,0,0,0,0,0,0,0,0
0,0,2075,2,-97,601,-36,11,186,0,0,0,0,0,0,0,0,0,0,0
0,0,2073,10,-105,602,-34,11,187,0,0,0,0,0,0,0,0,0,0,0
0,0,2074,9,-102,601,-36,12,188,0,0,0,0,0,0,0,0,0,0,0
0,0,2082,5,-95,602,-37,12,199,0,0,0,0,0,0,0,0,0,0,0
0,0,2068,5,-89,603,-36,13,194,0,0,0,0,0,0,0,0,0,0,0
0,0,2076,12,-100,602,-36,10,194,0,0,0,0,0,0,0,0,0,0,0
0,0,2078,9,-105,602,-32,12,194,0,0,0,0,0,0,0,0,0,0,0
0,0,2079,3,-115,603,-35,11,176,0,0,0,0,0,0,0,0,0,0,0
0,0,2076,2,-109,601,-35,12,177,0,0,0,0,0,0,0,0,0,0,0
0,0,2080,-2,-89,603,-35,12,198,0,0,0,0,0,0,0,0,0,0,0
0,0,2073,11,-108,604,-35,12,187,0,0,0,0,0,0,0,0,0,0,0
0,0,2076,2,-95,602,-35,11,191,0,0,0,0,0,0,0,0,0,0,0
0,0,2066,11,-93,603,-35,11,193,0,0,0,0,0,0,0,0,0,0,0
0,0,2074,5,-90,603,-34,12,200,0,0,0,0,0,0,0,0,0,0,0
0,0,2072,6,-89,603,-36,14,200,0,0,0,0,0,0,0,0,0,0,0
0,0,2071,4,-99,601,-34,12,185,0,0,0,0,0,0,0,0,0,0,0
0,0,2078,2,-98,602,-35,12,191,0,0,0,0,0,0,0,0,0,0,0
0,0,2080,3,-97,603,-36,12,195,0,0,0,0,0,0,0,0,0,0,0
0,0,2074,3,-104,603,-34,11,183,0,0,0,0,0,0,0,0,0,0,0
0,0,2081,1,-99,603,-33,14,197,0,0,0,0,0,0,0,0,0,0,0
0,0,2074,0,-105,602,-35,11,177,0,0,0,0,0,0,0,0,0,0,0
0,0,2069,3,-102,603,-34,12,181,0,0,0,0,0,0,0,0,0,0,0
0,0,2078,2,-94,603,-36,12,195,0,0,0,0,0,0,0,0,0,0,0
0,0,2079,6,-99,602,-35,12,195,0,0,0,0,0,0,0,0,0,0,0
0,0,2073,0,-104,600,-35,10,174,0,0,0,0,0,0,0,0,0,0,0
0,0,2072,-2,-97,602,-35,11,180,0,0,0,0,0,0,0,0,0,0,0
0,0,2074,-2,-89,601,-35,12,190,0,0,0,0,0,0,0,0,0,0,0
0,0,2070,8,-89,602,-37,11,195,0,0,0,0,0,0,0,0,0,0,0
0,0,2073,-2,-96,603,-37,13,183,0,0,0,0,0,0,0,0,0,0,0
0,0,2071,1,-105,601,-37,13,174,0,0,0,0,0,0,0,0,0,0,0
0,0,2074,2,-106,602,-35,11,178,0,0,0,0,0,0,0,0,0,0,0
0,0,2074,9,-96,601,-36,13,195,0,0,0,0,0,0,0,0,0,0,0
0,0,2070,-2,-98,602,-34,12,179,0,0,0,0,0,0,0,0,0,0,0
0,0,2075,5,-100,600,-34,10,186,0,0,0,0,0,0,0,0,0,0,0
0,0,2076,7,-92,603,-37,11,198,0,0,0,0,0,0,0,0,0,0,0
0,0,2081,7,-96,601,-37,12,198,0,0,0,0,0,0,0,0,0,0,0
0,0,2068,1,-108,601,-36,12,168,0,0,0,0,0,0,0,0,0,0,0
0,0,2085,4,-97,602,-35,13,202,0,0,0,0,0,0,0,0,0,0,0
0,0,2080,5,-88,603,-36,14,208,0,0,0,0,0,0,0,0,0,0,0
0,0,2078,4,-97,601,-35,12,193,0,0,0,0,0,0,0,0,0,0,0
0,0,2079,2,-101,602,-37,12,187,0,0,0,0,0,0,0,0,0,0,0
0,0,2075,10,-103,604,-36,10,190,0,0,0,0,0,0,0,0,0,0,0
0,0,2076,4,-89,603,-35,10,199,0,0,0,0,0,0,0,0,0,0,0
0,0,2076,-3,-95,602,-35,11,185,0,0,0,0,0,0,0,0,0,0,0
0,0,2078,-2,-97,602,-35,12,187,0,0,0,0,0,0,0,0,0,0,0
0,0,2070,3,-102,603,-35,13,182,0,0,0,0,0,0,0,0,0,0,0
0,0,2073,11,-88,602,-37,13,204,0,0,0,0,0,0,0,0,0,0,0
0,0,2085,8,-100,603,-36,12,202,0,0,0,0,0,0,0,0,0,0,0
0,0,2078,4,-101,602,-33,13,193,0,0,0,0,0,0,0,0,0,0,0
0,0,2083,6,-100,603,-35,12,199,0,0,0,0,0,0,0,0,0,0,0
0,0,2076,2,-96,601,-34,13,192,0,0,0,0,0,0,0,0,0,0,0
0,0,2076,-5,-92,602,-34,11,187,0,0,0,0,0,0,0,0,0,0,0
0,0,2068,0,-95,600,-35,13,181,0,0,0,0,0,0,0,0,0,0,0
0,0,2079,4,-103,602,-35,11,188,0,0,0,0,0,0,0,0,0,0,0
0,0,2076,7,-94,601,-39,11,192,0,0,0,0,0,0,0,0,0,0,0
0,0,2076,5,-92,600,-37,11,193,0,0,0,0,0,0,0,0,0,0,0
0,0,2080,6,-100,602,-37,12,193,0,0,0,0,0,0,0,0,0,0,0
0,0,2077,3,-101,601,-35,10,185,0,0,0,0,0,0,0,0,0,0,0
0,0,2077,4,-105,602,-36,12,184,0,0,0,0,0,0,0,0,0,0,0
0,0,2076,4,-104,600,-35,11,182,0,0,0,0,0,0,0,0,0,0,0
0,0,2071,3,-100,603,-35,11,183,0,0,0,0,0,0,0,0,0,0,0
0,0,2075,-2,-95,601,-33,12,187,0,0,0,0,0,0,0,0,0,0,0
0,0,2080,5,-95,601,-36,13,198,0,0,0,0,0,0,0,0,0,0,0
0,0,2072,3,-90,603,-36,12,194,0,0,0,0,0,0,0,0,0,0,0
0,0,2079,3,-96,602,-36,13,195,0,0,0,0,0,0,0,0,0,0,0
0,0,2075,1,-94,603,-38,11,188,0,0,0,0,0,0,0,0,0,0,0
0,0,2077,-2,-100,601,-35,13,183,0,0,0,0,0,0,0,0,0,0,0
0,0,2074,5,-101,602,-34,11,187,0,0,0,0,0,0,0,0,0,0,0
0,0,2074,0,-102,603,-36,12,181,0,0,0,0,0,0,0,0,0,0,0
0,0,2075,3,-94,603,-35,12,194,0,0,0,0,0,0,0,0,0,0,0
0,0,2072,-2,-80,602,-35,12,198,0,0,0,0,0,0,0,0,0,0,0
0,0,2076,5,-90,601,-36,12,198,0,0,0,0,0,0,0,0,0,0,0
0,0,2080,3,-91,603,-35,12,202,0,0,0,0,0,0,0,0,0,0,0
0,0,2074,5,-96,602,-36,12,191,0,0,0,0,0,0,0,0,0,0,0
0,0,2077,2,-99,603,-34,13,192,0,0,0,0,0,0,0,0,0,0,0
0,0,2080,4,-98,603,-36,12,195,0,0,0,0,0,0,0,0,0,0,0
0,0,2073,6,-109,602,-34,11,179,0,0,0,0,0,0,0,0,0,0,0
0,0,2080,2,-110,602,-37,12,179,0,0,0,0,0,0,0,0,0,0,0
0,0,2072,-1,-99,600,-35,11,177,0,0,0,0,0,0,0,0,0,0,0
0,0,2072,1,-94,603,-35,10,187,0,0,0,0,0,0,0,0,0,0,0
0,0,2070,3,-98,603,-34,12,186,0,0,0,0,0,0,0,0,0,0,0
0,0,2079,8,-102,603,-35,12,195,0,0,0,0,0,0,0,0,0,0,0
0,0,2071,0,-101,601,-36,13,178,0,0,0,0,0,0,0,0,0,0,0
0,0,2071,5,-100,602,-35,13,186,0,0,0,0,0,0,0,0,0,0,0
0,0,2073,4,-95,602,-35,11,190,0,0,0,0,0,0,0,0,0,0,0
0,0,2083,9,-93,600,-34,11,206,0,0,0,0,0,0,0,0,0,0,0
0,0,2073,7,-102,602,-37,10,183,0,0,0,0,0,0,0,0,0,0,0
0,0,2080,3,-99,601,-36,11,190,0,0,0,0,0,0,0,0,0,0,0
0,0,2080,4,-100,602,-36,11,191,0,0,0,0,0,0,0,0,0,0,0
0,0,2067,5,-101,603,-35,12,181,0,0,0,0,0,0,0,0,0,0,0
0,0,2074,5,-94,601,-35,11,192,0,0,0,0,0,0,0,0,0,0,0
0,0,2074,7,-92,601,-35,13,198,0,0,0,0,0,0,0,0,0,0,0
0,0,2079,4,-98,602,-35,11,193,0,0,0,0,0,0,0,0,0,0,0
0,0,2077,3,-103,602,-35,13,187,0,0,0,0,0,0,0,0,0,0,0
0,0,2073,4,-100,603,-36,11,185,0,0,0,0,0,0,0,0,0,0,0
0,0,2074,6,-107,604,-35,10,182,0,0,0,0,0,0,0,0,0,0,0
0,0,2077,5,-93,605,-35,10,199,0,0,0,0,0,0,0,0,0,0,0
0,0,2067,6,-105,603,-36,12,177,0,0,0,0,0,0,0,0,0,0,0
0,0,2073,6,-103,603,-33,12,188,0,0,0,0,0,0,0,0,0,0,0
0,0,2071,2,-101,601,-33,10,180,0,0,0,0,0,0,0,0,0,0,0
0,0,2078,5,-94,601,-35,11,196,0,0,0,0,0,0,0,0,0,0,0
0,0,2069,5,-109,603,-34,10,174,0,0,0,0,0,0,0,0,0,0,0
0,0,2072,1,-96,603,-37,13,186,0,0,0,0,0,0,0,0,0,0,0
0,0,2072,8,-96,601,-35,11,191,0,0,0,0,0,0,0,0,0,0,0
0,0,2071,3,-103,602,-34,11,180,0,0,0,0,0,0,0,0,0,0,0
0,0,2070,7,-97,601,-35,11,187,0,0,0,0,0,0,0,0,0,0,0
0,0,2078,5,-95,603,-35,11,197,0,0,0,0,0,0,0,0,0,0,0
0,0,2072,7,-103,602,-37,11,182,0,0,0,0,0,0,0,0,0,0,0
0,0,2076,7,-99,602,-36,11,191,0,0,0,0,0,0,0,0,0,0,0
0,0,2069,8,-103,602,-35,12,183,0,0,0,0,0,0,0,0,0,0,0
0,0,2068,7,-97,603,-36,12,187,0,0,0,0,0,0,0,0,0,0,0
0,0,2077,10,-91,601,-35,11,203,0,0,0,0,0,0,0,0,0,0,0
0,0,2076,4,-101,602,-38,13,186,0,0,0,0,0,0,0,0,0,0,0
0,0,2076,-2,-96,602,-35,12,186,0,0,0,0,0,0,0,0,0,0,0
0,0,2079,5,-91,603,-36,11,201,0,0,0,0,0,0,0,0,0,0,0
0,0,2076,3,-93,602,-36,12,194,0,0,0,0,0,0,0,0,0,0,0
0,0,2078,2,-95,601,-34,13,195,0,0,0,0,0,0,0,0,0,0,0
0,0,2079,0,-91,602,-36,9,193,0,0,0,0,0,0,0,0,0,0,0
0,0,2076,-3,-98,602,-35,12,183,0,0,0,0,0,0,0,0,0,0,0
0,0,2078,8,-107,602,-34,13,190,0,0,0,0,0,0,0,0,0,0,0
0,0,2081,2,-100,602,-34,11,192,0,0,0,0,0,0,0,0,0,0,0
0,0,2079,4,-95,602,-36,13,197,0,0,0,0,0,0,0,0,0,0,0
0,0,2079,2,-109,601,-36,13,180,0,0,0,0,0,0,0,0,0,0,0
0,0,2070,7,-101,602,-34,11,185,0,0,0,0,0,0,0,0,0,0,0
0,0,2067,3,-88,601,-37,13,189,0,0,0,0,0,0,0,0,0,0,0
0,0,2078,15,-92,602,-35,10,208,0,0,0,0,0,0,0,0,0,0,0
0,0,2076,5,-97,601,-37,12,190,0,0,0,0,0,0,0,0,0,0,0
0,0,2077,7,-112,601,-35,11,179,0,0,0,0,0,0,0,0,0,0,0
0,0,2075,4,-96,601,-36,11,189,0,0,0,0,0,0,0,0,0,0,0
0,0,2075,3,-96,604,-35,12,193,0,0,0,0,0,0,0,0,0,0,0
0,0,2074,-1,-101,601,-34,12,180,0,0,0,0,0,0,0,0,0,0,0
0,0,2074,11,-103,602,-35,12,191,0,0,0,0,0,0,0,0,0,0,0
0,0,2079,8,-103,602,-34,12,194,0,0,0,0,0,0,0,0,0,0,0
0,0,2073,-1,-105,602,-34,12,176,0,0,0,0,0,0,0,0,0,0,0
0,0,2073,-2,-102,601,-36,12,175,0,0,0,0,0,0,0,0,0,0,0
0,0,2075,12,-104,602,-34,10,191,0,0,0,0,0,0,0,0,0,0,0
0,0,2079,4,-95,601,-34,10,195,0,0,0,0,0,0,0,0,0,0,0
0,0,2073,-1,-104,602,-35,12,176,0,0,0,0,0,0,0,0,0,0,0
0,0,2071,-7,-97,603,-34,11,176,0,0,0,0,0,0,0,0,0,0,0
0,0,2071,-6,-99,603,-35,13,176,0,0,0,0,0,0,0,0,0,0,0
0,0,2068,1,-97,603,-34,11,182,0,0,0,0,0,0,0,0,0,0,0
0,0,2066,7,-101,602,-36,12,180,0,0,0,0,0,0,0,0,0,0,0
0,0,2071,5,-104,603,-35,10,180,0,0,0,0,0,0,0,0,0,0,0
0,0,2079,2,-79,602,-34,13,213,0,0,0,0,0,0,0,0,0,0,0
0,0,2075,7,-83,602,-34,12,209,0,0,0,0,0,0,0,0,0,0,0
0,0,2085,9,-100,602,-33,12,205,0,0,0,0,0,0,0,0,0,0,0
0,0,2071,5,-93,601,-34,11,191,0,0,0,0,0,0,0,0,0,0,0
0,0,2076,-2,-104,601,-36,12,176,0,0,0,0,0,0,0,0,0,0,0
0,0,2076,7,-99,603,-35,12,194,0,0,0,0,0,0,0,0,0,0,0
0,0,2074,-3,-87,603,-36,12,192,0,0,0,0,0,0,0,0,0,0,0
0,0,2072,3,-94,602,-36,14,191,0,0,0,0,0,0,0,0,0,0,0
0,0,2072,-4,-106,602,-35,13,171,0,0,0,0,0,0,0,0,0,0,0
0,0,2073,0,-110,602,-36,13,172,0,0,0,0,0,0,0,0,0,0,0
0,0,2073,11,-96,601,-36,12,195,0,0,0,0,0,0,0,0,0,0,0
0,0,2072,9,-99,602,-36,11,189,0,0,0,0,0,0,0,0,0,0,0
0,0,2078,4,-98,603,-35,12,194,0,0,0,0,0,0,0,0,0,0,0
0,0,2075,3,-98,602,-33,11,190,0,0,0,0,0,0,0,0,0,0,0
0,0,2074,5,-85,602,-35,12,203,0,0,0,0,0,0,0,0,0,0,0
0,0,2082,1,-93,601,-34,12,199,0,0,0,0,0,0,0,0,0,0,0
0,0,2072,4,-96,602,-34,12,190,0,0,0,0,0,0,0,0,0,0,0
0,0,2070,3,-95,602,-34,11,187,0,0,0,0,0,0,0,0,0,0,0
0,0,2073,1,-99,602,-34,12,185,0,0,0,0,0,0,0,0,0,0,0
0,0,2080,9,-90,602,-36,11,206,0,0,0,0,0,0,0,0,0,0,0
0,0,2078,7,-90,602,-36,10,201,0,0,0,0,0,0,0,0,0,0,0
0,0,2072,-5,-101,601,-36,13,173,0,0,0,0,0,0,0,0,0,0,0
0,0,2071,4,-101,600,-36,12,180,0,0,0,0,0,0,0,0,0,0,0
0,0,2078,2,-106,601,-36,12,181,0,0,0,0,0,0,0,0,0,0,0
0,0,2063,7,-94,601,-36,12,183,0,0,0,0,0,0,0,0,0,0,0
0,0,2071,3,-103,601,-36,10,176,0,0,0,0,0,0,0,0,0,0,0
0,0,2075,-3,-109,603,-37,11,169,0,0,0,0,0,0,0,0,0,0,0
0,0,2072,-1,-100,603,-36,12,179,0,0,0,0,0,0,0,0,0,0,0
0,0,2069,6,-90,601,-35,11,192,0,0,0,0,0,0,0,0,0,0,0
0,0,2070,1,-98,601,-36,12,180,0,0,0,0,0,0,0,0,0,0,0
0,0,2075,7,-94,602,-36,11,195,0,0,0,0,0,0,0,0,0,0,0
0,0,2075,-5,-99,603,-33,11,181,0,0,0,0,0,0,0,0,0,0,0
0,0,2072,1,-102,600,-36,13,178,0,0,0,0,0,0,0,0,0,0,0
0,0,2070,9,-103,600,-36,13,183,0,0,0,0,0,0,0,0,0,0,0
0,0,2073,2,-97,601,-35,10,184,0,0,0,0,0,0,0,0,0,0,0
0,0,2079,-5,-105,601,-37,12,174,0,0,0,0,0,0,0,0,0,0,0
0,0,2074,3,-104,602,-35,11,181,0,0,0,0,0,0,0,0,0,0,0
0,0,2065,9,-104,603,-34,13,182,0,0,0,0,0,0,0,0,0,0,0
0,0,2078,4,-90,603,-35,11,201,0,0,0,0,0,0,0,0,0,0,0
0,0,2075,2,-105,601,-35,12,180,0,0,0,0,0,0,0,0,0,0,0
0,0,2073,5,-103,601,-36,14,184,0,0,0,0,0,0,0,0,0,0,0
0,0,2080,4,-108,603,-35,11,185,0,0,0,0,0,0,0,0,0,0,0
0,0,2077,3,-98,604,-35,13,194,0,0,0,0,0,0,0,0,0,0,0
0,0,2077,3,-100,601,-36,12,187,0,0,0,0,0,0,0,0,0,0,0
0,0,2075,10,-91,601,-37,12,200,0,0,0,0,0,0,0,0,0,0,0
0,0,2075,0,-99,602,-36,12,184,0,0,0,0,0,0,0,0,0,0,0
0,0,2075,7,-98,604,-36,11,193,0,0,0,0,0,0,0,0,0,0,0
0,0,2075,1,-87,602,-35,11,197,0,0,0,0,0,0,0,0,0,0,0
0,0,2074,5,-93,603,-35,12,196,0,0,0,0,0,0,0,0,0,0,0
0,0,2077,8,-96,602,-35,12,198,0,0,0,0,0,0,0,0,0,0,0
0,0,2075,5,-93,602,-34,12,197,0,0,0,0,0,0,0,0,0,0,0
0,0,2080,0,-98,604,-34,12,194,0,0,0,0,0,0,0,0,0,0,0
0,0,2085,-6,-100,602,-36,12,186,0,0,0,0,0,0,0,0,0,0,0
0,0,2073,-2,-101,602,-36,10,175,0,0,0,0,0,0,0,0,0,0,0
0,0,2075,0,-115,604,-36,11,169,0,0,0,0,0,0,0,0,0,0,0
0,0,2076,4,-97,602,-35,12,192,0,0,0,0,0,0,0,0,0,0,0
0,0,2082,13,-93,603,-35,11,211,0,0,0,0,0,0,0,0,0,0,0
0,0,2073,5,-97,603,-34,11,191,0,0,0,0,0,0,0,0,0,0,0
0,0,2077,7,-103,601,-37,11,186,0,0,0,0,0,0,0,0,0,0,0
0,0,2075,3,-105,602,-34,11,182,0,0,0,0,0,0,0,0,0,0,0
0,0,2067,2,-91,602,-35,11,186,0,0,0,0,0,0,0,0,0,0,0
0,0,2076,-1,-93,601,-37,13,188,0,0,0,0,0,0,0,0,0,0,0
0,0,2071,3,-100,602,-34,12,184,0,0,0,0,0,0,0,0,0,0,0
0,0,2072,-2,-91,602,-33,12,189,0,0,0,0,0,0,0,0,0,0,0
0,0,2077,11,-102,603,-36,13,196,0,0,0,0,0,0,0,0,0,0,0
0,0,2074,9,-105,602,-35,11,186,0,0,0,0,0,0,0,0,0,0,0
0,0,2079,8,-98,602,-33,11,199,0,0,0,0,0,0,0,0,0,0,0
0,0,2074,9,-90,601,-35,11,200,0,0,0,0,0,0,0,0,0,0,0
0,0,2070,-5,-92,603,-35,10,180,0,0,0,0,0,0,0,0,0,0,0
0,0,2072,-2,-100,601,-34,12,178,0,0,0,0,0,0,0,0,0,0,0
0,0,2070,7,-90,602,-33,11,197,0,0,0,0,0,0,0,0,0,0,0
0,0,2080,3,-94,603,-35,12,199,0,0,0,0,0,0,0,0,0,0,0
0,0,2082,-1,-91,601,-35,10,195,0,0,0,0,0,0,0,0,0,0,0
0,0,2075,2,-107,601,-35,11,177,0,0,0,0,0,0,0,0,0,0,0
0,0,2075,-4,-96,601,-36,12,181,0,0,0,0,0,0,0,0,0,0,0
0,0,2068,7,-91,604,-34,13,197,0,0,0,0,0,0,0,0,0,0,0
0,0,2071,8,-104,601,-36,12,182,0,0,0,0,0,0,0,0,0,0,0
0,0,2072,3,-97,600,-35,12,185,0,0,0,0,0,0,0,0,0,0,0
0,0,2077,8,-105,602,-36,11,187,0,0,0,0,0,0,0,0,0,0,0
0,0,2070,5,-99,601,-35,11,183,0,0,0,0,0,0,0,0,0,0,0
0,0,2083,4,-97,603,-36,11,198,0,0,0,0,0,0,0,0,0,0,0
0,0,2077,4,-96,603,-35,11,194,0,0,0,0,0,0,0,0,0,0,0
0,0,2072,0,-98,603,-34,11,184,0,0,0,0,0,0,0,0,0,0,0
0,0,2081,8,-92,602,-36,11,204,0,0,0,0,0,0,0,0,0,0,0
0,0,2075,11,-97,602,-36,12,197,0,0,0,0,0,0,0,0,0,0,0
0,0,2070,4,-95,601,-35,13,188,0,0,0,0,0,0,0,0,0,0,0
0,0,2072,4,-95,602,-35,12,190,0,0,0,0,0,0,0,0,0,0,0
0,0,2082,7,-90,601,-35,12,207,0,0,0,0,0,0,0,0,0,0,0
0,0,2082,0,-99,602,-34,12,193,0,0,0,0,0,0,0,0,0,0,0
0,0,2076,4,-101,602,-36,12,187,0,0,0,0,0,0,0,0,0,0,0
0,0,2074,8,-90,600,-33,12,201,0,0,0,0,0,0,0,0,0,0,0
0,0,2077,10,-104,602,-38,11,188,0,0,0,0,0,0,0,0,0,0,0
0,0,2077,-1,-114,600,-33,13,171,0,0,0,0,0,0,0,0,0,0,0
0,0,2073,12,-98,604,-34,12,199,0,0,0,0,0,0,0,0,0,0,0
0,0,2075,7,-100,602,-35,13,192,0,0,0,0,0,0,0,0,0,0,0
0,0,2070,0,-99,601,-34,13,181,0,0,0,0,0,0,0,0,0,0,0
0,0,2074,-3,-96,602,-36,12,182,0,0,0,0,0,0,0,0,0,0,0
0,0,2073,-2,-93,601,-33,12,187,0,0,0,0,0,0,0,0,0,0,0
0,0,2075,3,-98,601,-34,10,187,0,0,0,0,0,0,0,0,0,0,0
0,0,2077,3,-101,601,-35,10,185,0,0,0,0,0,0,0,0,0,0,0
0,0,2077,7,-100,601,-33,10,192,0,0,0,0,0,0,0,0,0,0,0
0,0,2075,7,-101,602,-36,11,188,0,0,0,0,0,0,0,0,0,0,0
0,0,2072,11,-106,602,-36,13,186,0,0,0,0,0,0,0,0,0,0,0
0,0,2079,9,-106,600,-34,11,189,0,0,0,0,0,0,0,0,0,0,0
0,0,2069,-4,-100,603,-36,12,173,0,0,0,0,0,0,0,0,0,0,0
0,0,2072,5,-98,603,-36,12,188,0,0,0,0,0,0,0,0,0,0,0
0,0,2070,3,-98,600,-36,12,181,0,0,0,0,0,0,0,0,0,0,0
0,0,2069,8,-99,600,-36,11,183,0,0,0,0,0,0,0,0,0,0,0
0,0,2075,3,-102,601,-36,11,182,0,0,0,0,0,0,0,0,0,0,0
0,0,2072,-2,-94,601,-35,12,183,0,0,0,0,0,0,0,0,0,0,0
0,0,2076,-1,-103,601,-34,11,179,0,0,0,0,0,0,0,0,0,0,0
0,0,2078,8,-95,601,-34,13,201,0,0,0,0,0,0,0,0,0,0,0
0,0,2076,2,-94,602,-35,11,192,0,0,0,0,0,0,0,0,0,0,0
0,0,2070,5,-84,602,-33,11,201,0,0,0,0,0,0,0,0,0,0,0
0,0,2068,5,-87,603,-35,11,195,0,0,0,0,0,0,0,0,0,0,0
0,0,2075,4,-105,603,-34,13,186,0,0,0,0,0,0,0,0,0,0,0
0,0,2069,9,-95,601,-37,10,187,0,0,0,0,0,0,0,0,0,0,0
0,0,2073,6,-111,602,-36,11,175,0,0,0,0,0,0,0,0,0,0,0
0,0,2074,1,-97,602,-34,11,187,0,0,0,0,0,0,0,0,0,0,0
0,0,2073,2,-98,602,-36,12,185,0,0,0,0,0,0,0,0,0,0,0
0,0,2073,4,-99,601,-35,10,184,0,0,0,0,0,0,0,0,0,0,0
0,0,2075,0,-92,601,-35,12,191,0,0,0,0,0,0,0,0,0,0,0
0,0,2078,-4,-94,602,-36,10,185,0,0,0,0,0,0,0,0,0,0,0
0,0,2070,2,-88,602,-36,11,191,0,0,0,0,0,0,0,0,0,0,0
0,0,2075,4,-95,603,-35,14,196,0,0,0,0,0,0,0,0,0,0,0
0,0,2068,4,-98,602,-35,12,183,0,0,0,0,0,0,0,0,0,0,0
0,0,2075,0,-97,602,-34,11,187,0,0,0,0,0,0,0,0,0,0,0
0,0,2078,7,-96,602,-35,12,198,0,0,0,0,0,0,0,0,0,0,0
0,0,2078,5,-96,601,-34,12,196,0,0,0,0,0,0,0,0,0,0,0
0,0,2069,5,-103,600,-36,12,177,0,0,0,0,0,0,0,0,0,0,0
0,0,2076,13,-97,602,-35,12,201,0,0,0,0,0,0,0,0,0,0,0
0,0,2079,7,-99,603,-35,12,197,0,0,0,0,0,0,0,0,0,0,0
0,0,2072,-1,-106,603,-35,11,173,0,0,0,0,0,0,0,0,0,0,0
0,0,2076,-1,-96,602,-35,13,188,0,0,0,0,0,0,0,0,0,0,0
0,0,2074,-4,-101,603,-34,12,179,0,0,0,0,0,0,0,0,0,0,0
0,0,2074,-6,-107,604,-36,13,171,0,0,0,0,0,0,0,0,0,0,0
0,0,2072,8,-88,603,-37,11,199,0,0,0,0,0,0,0,0,0,0,0
0,0,2068,-2,-101,600,-35,10,169,0,0,0,0,0,0,0,0,0,0,0
0,0,2072,-1,-105,602,-34,14,177,0,0,0,0,0,0,0,0,0,0,0
0,0,2077,4,-88,604,-36,11,202,0,0,0,0,0,0,0,0,0,0,0
0,0,2076,9,-101,603,-35,10,192,0,0,0,0,0,0,0,0,0,0,0
0,0,2070,7,-103,602,-35,12,183,0,0,0,0,0,0,0,0,0,0,0
0,0,2072,-5,-105,602,-35,11,169,0,0,0,0,0,0,0,0,0,0,0
0,0,2079,-1,-108,601,-35,13,178,0,0,0,0,0,0,0,0,0,0,0
0,0,2076,10,-97,601,-34,13,199,0,0,0,0,0,0,0,0,0,0,0
0,0,2072,4,-96,602,-35,11,188,0,0,0,0,0,0,0,0,0,0,0
0,0,2076,10,-91,602,-34,11,204,0,0,0,0,0,0,0,0,0,0,0
0,0,2070,5,-101,601,-36,11,180,0,0,0,0,0,0,0,0,0,0,0
0,0,2069,8,-107,601,-36,11,176,0,0,0,0,0,0,0,0,0,0,0
0,0,2070,-4,-107,602,-35,12,167,0,0,0,0,0,0,0,0,0,0,0
0,0,2080,-9,-100,602,-36,11,177,0,0,0,0,0,0,0,0,0,0,0
0,0,2074,5,-106,602,-36,12,181,0,0,0,0,0,0,0,0,0,0,0
0,0,2074,3,-99,601,-35,12,186,0,0,0,0,0,0,0,0,0,0,0
0,0,2072,-3,-95,601,-35,11,180,0,0,0,0,0,0,0,0,0,0,0
0,0,2084,2,-93,601,-35,10,199,0,0,0,0,0,0,0,0,0,0,0
0,0,2078,15,-95,603,-35,12,208,0,0,0,0,0,0,0,0,0,0,0
0,0,2072,2,-95,605,-35,12,191,0,0,0,0,0,0,0,0,0,0,0
0,0,2070,5,-100,603,-35,14,187,0,0,0,0,0,0,0,0,0,0,0
0,0,2079,11,-99,602,-36,12,199,0,0,0,0,0,0,0,0,0,0,0
0,0,2076,3,-97,602,-34,12,192,0,0,0,0,0,0,0,0,0,0,0
0,0,2077,1,-101,601,-34,12,186,0,0,0,0,0,0,0,0,0,0,0
0,0,2077,0,-99,602,-36,12,186,0,0,0,0,0,0,0,0,0,0,0
0,0,2083,6,-86,601,-37,12,209,0,0,0,0,0,0,0,0,0,0,0
0,0,2083,6,-93,600,-33,11,204,0,0,0,0,0,0,0,0,0,0,0
0,0,2082,6,-96,603,-34,11,202,0,0,0,0,0,0,0,0,0,0,0
0,0,2076,2,-92,601,-35,11,193,0,0,0,0,0,0,0,0,0,0,0
0,0,2071,3,-98,602,-34,12,186,0,0,0,0,0,0,0,0,0,0,0
0,0,2075,6,-90,601,-36,11,197,0,0,0,0,0,0,0,0,0,0,0
0,0,2072,-2,-91,601,-35,13,187,0,0,0,0,0,0,0,0,0,0,0
0,0,2074,6,-88,602,-35,13,202,0,0,0,0,0,0,0,0,0,0,0
0,0,2080,15,-100,602,-35,13,205,0,0,0,0,0,0,0,0,0,0,0
0,0,2074,1,-95,601,-35,13,189,0,0,0,0,0,0,0,0,0,0,0
0,0,2078,7,-99,604,-35,12,197,0,0,0,0,0,0,0,0,0,0,0
0,0,2074,3,-96,602,-35,11,189,0,0,0,0,0,0,0,0,0,0,0
0,0,2073,6,-94,602,-35,11,193,0,0,0,0,0,0,0,0,0,0,0
0,0,2076,7,-105,601,-35,12,186,0,0,0,0,0,0,0,0,0,0,0
0,0,2079,9,-95,600,-36,12,199,0,0,0,0,0,0,0,0,0,0,0
0,0,2065,1,-101,603,-35,13,176,0,0,0,0,0,0,0,0,0,0,0
0,0,2079,-3,-95,600,-35,12,187,0,0,0,0,0,0,0,0,0,0,0
0,0,2072,8,-104,602,-35,10,183,0,0,0,0,0,0,0,0,0,0,0
0,0,2074,2,-99,602,-35,10,184,0,0,0,0,0,0,0,0,0,0,0
0,0,2072,0,-97,601,-34,11,183,0,0,0,0,0,0,0,0,0,0,0
0,0,2074,5,-96,602,-35,11,191,0,0,0,0,0,0,0,0,0,0,0
0,0,2072,1,-90,602,-36,13,192,0,0,0,0,0,0,0,0,0,0,0
0,0,2080,-1,-106,602,-36,11,179,0,0,0,0,0,0,0,0,0,0,0
0,0,2084,2,-105,602,-34,11,190,0,0,0,0,0,0,0,0,0,0,0
0,0,2067,2,-92,602,-35,11,185,0,0,0,0,0,0,0,0,0,0,0
0,0,2074,5,-99,601,-35,11,187,0,0,0,0,0,0,0,0,0,0,0
0,0,2079,1,-94,603,-36,10,193,0,0,0,0,0,0,0,0,0,0,0
0,0,2070,1,-102,602,-35,11,177,0,0,0,0,0,0,0,0,0,0,0
0,0,2083,11,-99,602,-36,12,203,0,0,0,0,0,0,0,0,0,0,0
0,0,2077,8,-90,601,-35,12,203,0,0,0,0,0,0,0,0,0,0,0
0,0,2073,6,-93,602,-34,12,196,0,0,0,0,0,0,0,0,0,0,0
0,0,2077,3,-94,603,-33,12,198,0,0,0,0,0,0,0,0,0,0,0
0,0,2076,3,-96,603,-36,12,192,0,0,0,0,0,0,0,0,0,0,0
0,0,2079,0,-96,602,-35,13,193,0,0,0,0,0,0,0,0,0,0,0
0,0,2075,0,-93,601,-34,12,191,0,0,0,0,0,0,0,0,0,0,0
0,0,2079,8,-95,602,-34,12,202,0,0,0,0,0,0,0,0,0,0,0
0,0,2070,2,-95,603,-34,10,186,0,0,0,0,0,0,0,0,0,0,0
0,0,2071,4,-96,602,-36,10,185,0,0,0,0,0,0,0,0,0,0,0
0,0,2074,8,-104,602,-36,12,186,0,0,0,0,0,0,0,0,0,0,0
0,0,2079,7,-84,603,-34,12,213,0,0,0,0,0,0,0,0,0,0,0
0,0,2072,1,-97,601,-35,11,183,0,0,0,0,0,0,0,0,0,0,0
0,0,2075,4,-100,603,-34,12,190,0,0,0,0,0,0,0,0,0,0,0
0,0,2073,-2,-101,602,-36,11,176,0,0,0,0,0,0,0,0,0,0,0
0,0,2071,6,-100,604,-37,11,185,0,0,0,0,0,0,0,0,0,0,0
0,0,2065,9,-109,602,-36,11,172,0,0,0,0,0,0,0,0,0,0,0
0,0,2075,2,-96,601,-36,11,187,0,0,0,0,0,0,0,0,0,0,0
0,0,2072,0,-91,601,-35,11,188,0,0,0,0,0,0,0,0,0,0,0
0,0,2076,0,-92,601,-36,11,190,0,0,0,0,0,0,0,0,0,0,0
0,0,2076,-2,-105,602,-35,12,177,0,0,0,0,0,0,0,0,0,0,0
0,0,2072,10,-97,601,-35,11,192,0,0,0,0,0,0,0,0,0,0,0
0,0,2081,-1,-107,602,-36,13,181,0,0,0,0,0,0,0,0,0,0,0
0,0,2080,7,-95,601,-35,14,202,0,0,0,0,0,0,0,0,0,0,0
0,0,2076,8,-100,602,-35,14,195,0,0,0,0,0,0,0,0,0,0,0
0,0,2067,8,-100,602,-34,13,186,0,0,0,0,0,0,0,0,0,0,0
0,0,2078,7,-105,600,-35,12,187,0,0,0,0,0,0,0,0,0,0,0
0,0,2073,3,-92,603,-34,11,194,0,0,0,0,0,0,0,0,0,0,0
0,0,2066,7,-103,601,-36,13,178,0,0,0,0,0,0,0,0,0,0,0
0,0,2079,6,-103,601,-35,11,189,0,0,0,0,0,0,0,0,0,0,0
0,0,2074,-1,-91,604,-35,11,191,0,0,0,0,0,0,0,0,0,0,0
0,0,2076,4,-95,603,-36,13,195,0,0,0,0,0,0,0,0,0,0,0
0,0,2080,11,-97,603,-36,11,202,0,0,0,0,0,0,0,0,0,0,0
0,0,2073,9,-93,603,-34,13,201,0,0,0,0,0,0,0,0,0,0,0
0,0,2082,9,-88,601,-34,12,212,0,0,0,0,0,0,0,0,0,0,0
0,0,2074,-3,-95,603,-35,11,184,0,0,0,0,0,0,0,0,0,0,0
0,0,2074,2,-102,601,-34,11,182,0,0,0,0,0,0,0,0,0,0,0
0,0,2072,11,-100,603,-35,12,193,0,0,0,0,0,0,0,0,0,0,0
0,0,2073,0,-96,604,-34,14,191,0,0,0,0,0,0,0,0,0,0,0
0,0,2072,12,-103,603,-34,12,192,0,0,0,0,0,0,0,0,0,0,0
0,0,2080,4,-101,602,-35,10,190,0,0,0,0,0,0,0,0,0,0,0
0,0,2075,4,-91,602,-33,12,199,0,0,0,0,0,0,0,0,0,0,0
0,0,2073,4,-101,602,-35,8,181,0,0,0,0,0,0,0,0,0,0,0
0,0,2071,12,-94,600,-36,11,194,0,0,0,0,0,0,0,0,0,0,0
0,0,2072,10,-91,601,-37,12,197,0,0,0,0,0,0,0,0,0,0,0
0,0,2075,10,-93,603,-36,10,199,0,0,0,0,0,0,0,0,0,0,0
0,0,2072,6,-105,601,-35,11,180,0,0,0,0,0,0,0,0,0,0,0
0,0,2081,4,-103,604,-36,13,193,0,0,0,0,0,0,0,0,0,0,0
0,0,2074,3,-105,602,-34,12,182,0,0,0,0,0,0,0,0,0,0,0
0,0,2080,1,-95,601,-35,12,194,0,0,0,0,0,0,0,0,0,0,0
0,0,2071,8,-106,602,-35,11,181,0,0,0,0,0,0,0,0,0,0,0
0,0,2076,0,-96,602,-35,11,188,0,0,0,0,0,0,0,0,0,0,0
0,0,2074,10,-98,602,-34,10,194,0,0,0,0,0,0,0,0,0,0,0
0,0,2075,5,-89,602,-34,11,200,0,0,0,0,0,0,0,0,0,0,0
0,0,2075,14,-96,602,-34,12,203,0,0,0,0,0,0,0,0,0,0,0
0,0,2078,7,-94,601,-35,13,200,0,0,0,0,0,0,0,0,0,0,0
0,0,2076,9,-104,602,-36,12,189,0,0,0,0,0,0,0,0,0,0,0
0,0,2073,4,-93,603,-35,13,195,0,0,0,0,0,0,0,0,0,0,0
0,0,2075,4,-86,601,-37,14,201,0,0,0,0,0,0,0,0,0,0,0
0,0,2081,3,-100,601,-37,13,191,0,0,0,0,0,0,0,0,0,0,0
0,0,2072,2,-98,602,-35,12,185,0,0,0,0,0,0,0,0,0,0,0
0,0,2078,1,-91,602,-36,11,195,0,0,0,0,0,0,0,0,0,0,0
0,0,2077,6,-91,602,-36,12,200,0,0,0,0,0,0,0,0,0,0,0
0,0,2080,3,-102,601,-35,11,188,0,0,0,0,0,0,0,0,0,0,0
0,0,2072,5,-106,601,-36,11,177,0,0,0,0,0,0,0,0,0,0,0
0,0,2077,-1,-96,602,-34,10,187,0,0,0,0,0,0,0,0,0,0,0
0,0,2080,2,-102,601,-36,12,187,0,0,0,0,0,0,0,0,0,0,0
0,0,2072,2,-97,602,-35,12,186,0,0,0,0,0,0,0,0,0,0,0
0,0,2077,0,-98,603,-35,11,188,0,0,0,0,0,0,0,0,0,0,0
0,0,2075,0,-91,602,-34,11,193,0,0,0,0,0,0,0,0,0,0,0
0,0,2073,4,-98,604,-35,12,190,0,0,0,0,0,0,0,0,0,0,0
0,0,2080,9,-97,604,-35,11,202,0,0,0,0,0,0,0,0,0,0,0
0,0,2069,5,-96,602,-36,11,185,0,0,0,0,0,0,0,0,0,0,0
0,0,2073,0,-94,600,-35,11,185,0,0,0,0,0,0,0,0,0,0,0
0,0,2083,5,-100,602,-36,12,196,0,0,0,0,0,0,0,0,0,0,0
0,0,2071,1,-94,601,-36,12,185,0,0,0,0,0,0,0,0,0,0,0
0,0,2077,6,-102,602,-35,12,190,0,0,0,0,0,0,0,0,0,0,0
0,0,2080,6,-102,602,-36,13,193,0,0,0,0,0,0,0,0,0,0,0
0,0,2070,8,-96,602,-34,10,190,0,0,0,0,0,0,0,0,0,0,0
0,0,2071,5,-98,601,-34,12,187,0,0,0,0,0,0,0,0,0,0,0
0,0,2074,4,-99,602,-33,14,192,0,0,0,0,0,0,0,0,0,0,0
0,0,2070,10,-105,601,-35,12,183,0,0,0,0,0,0,0,0,0,0,0
0,0,2077,1,-102,603,-36,12,185,0,0,0,0,0,0,0,0,0,0,0
0,0,2077,0,-96,602,-35,12,190,0,0,0,0,0,0,0,0,0,0,0
0,0,2068,-1,-104,600,-36,12,168,0,0,0,0,0,0,0,0,0,0,0
0,0,2073,6,-103,602,-36,12,184,0,0,0,0,0,0,0,0,0,0,0
0,0,2075,2,-103,602,-35,10,181,0,0,0,0,0,0,0,0,0,0,0
0,0,2078,-2,-106,603,-35,11,178,0,0,0,0,0,0,0,0,0,0,0
0,0,2070,6,-101,604,-35,11,185,0,0,0,0,0,0,0,0,0,0,0
0,0,2069,3,-106,601,-35,11,173,0,0,0,0,0,0,0,0,0,0,0
0,0,2075,8,-106,602,-35,12,186,0,0,0,0,0,0,0,0,0,0,0
0,0,2080,7,-103,602,-36,10,190,0,0,0,0,0,0,0,0,0,0,0
0,0,2071,4,-98,602,-34,12,187,0,0,0,0,0,0,0,0,0,0,0
0,0,2075,6,-107,602,-34,12,184,0,0,0,0,0,0,0,0,0,0,0
0,0,2082,6,-96,601,-34,11,200,0,0,0,0,0,0,0,0,0,0,0
0,0,2076,13,-103,603,-35,12,196,0,0,0,0,0,0,0,0,0,0,0
0,0,2068,5,-100,601,-35,12,181,0,0,0,0,0,0,0,0,0,0,0
0,0,2073,10,-101,601,-34,13,192,0,0,0,0,0,0,0,0,0,0,0
0,0,2071,2,-97,601,-34,13,186,0,0,0,0,0,0,0,0,0,0,0
0,0,2073,-5,-98,601,-35,12,177,0,0,0,0,0,0,0,0,0,0,0
0,0,2074,4,-91,603,-35,11,196,0,0,0,0,0,0,0,0,0,0,0
0,0,2077,-1,-91,601,-34,11,192,0,0,0,0,0,0,0,0,0,0,0
0,0,2072,6,-101,601,-36,10,182,0,0,0,0,0,0,0,0,0,0,0
0,0,2078,-6,-106,601,-35,12,173,0,0,0,0,0,0,0,0,0,0,0
0,0,2078,5,-99,600,-36,12,190,0,0,0,0,0,0,0,0,0,0,0
0,0,2075,7,-100,602,-35,12,191,0,0,0,0,0,0,0,0,0,0,0
0,0,2071,0,-95,601,-35,11,183,0,0,0,0,0,0,0,0,0,0,0
0,0,2071,11,-100,603,-36,10,189,0,0,0,0,0,0,0,0,0,0,0
0,0,2072,6,-100,602,-34,11,187,0,0,0,0,0,0,0,0,0,0,0
0,0,2078,5,-96,601,-35,11,194,0,0,0,0,0,0,0,0,0,0,0
0,0,2071,7,-94,602,-35,15,196,0,0,0,0,0,0,0,0,0,0,0
0,0,2076,-3,-99,602,-34,11,182,0,0,0,0,0,0,0,0,0,0,0
0,0,2078,8,-91,602,-36,13,204,0,0,0,0,0,0,0,0,0,0,0
0,0,2076,3,-97,603,-35,12,192,0,0,0,0,0,0,0,0,0,0,0
0,0,2074,8,-99,603,-35,12,193,0,0,0,0,0,0,0,0,0,0,0
0,0,2073,-1,-89,602,-35,10,189,0,0,0,0,0,0,0,0,0,0,0
0,0,2079,-1,-96,601,-36,11,187,0,0,0,0,0,0,0,0,0,0,0
0,0,2071,-2,-97,602,-35,12,180,0,0,0,0,0,0,0,0,0,0,0
0,0,2074,4,-99,601,-34,12,188,0,0,0,0,0,0,0,0,0,0,0
0,0,2076,2,-102,603,-34,10,185,0,0,0,0,0,0,0,0,0,0,0
0,0,2073,3,-96,601,-36,12,187,0,0,0,0,0,0,0,0,0,0,0
0,0,2075,4,-101,602,-33,11,188,0,0,0,0,0,0,0,0,0,0,0
0,0,2071,7,-95,603,-35,11,192,0,0,0,0,0,0,0,0,0,0,0
0,0,2078,7,-105,603,-35,11,189,0,0,0,0,0,0,0,0,0,0,0
0,0,2077,5,-94,603,-34,10,197,0,0,0,0,0,0,0,0,0,0,0
0,0,2071,4,-108,605,-36,12,178,0,0,0,0,0,0,0,0,0,0,0
0,0,2070,5,-105,603,-33,10,180,0,0,0,0,0,0,0,0,0,0,0
0,0,2074,6,-100,605,-34,12,193,0,0,0,0,0,0,0,0,0,0,0
0,0,2075,2,-103,603,-38,12,181,0,0,0,0,0,0,0,0,0,0,0
0,0,2077,10,-102,602,-36,11,192,0,0,0,0,0,0,0,0,0,0,0
0,0,2070,5,-104,602,-35,11,179,0,0,0,0,0,0,0,0,0,0,0
0,0,2078,10,-105,602,-37,11,189,0,0,0,0,0,0,0,0,0,0,0
0,0,2078,3,-105,602,-34,11,185,0,0,0,0,0,0,0,0,0,0,0
0,0,2071,2,-99,602,-34,14,186,0,0,0,0,0,0,0,0,0,0,0
0,0,2079,3,-87,603,-35,13,206,0,0,0,0,0,0,0,0,0,0,0
0,0,2075,-3,-95,602,-32,10,186,0,0,0,0,0,0,0,0,0,0,0
0,0,2076,-2,-96,600,-35,11,183,0,0,0,0,0,0,0,0,0,0,0
0,0,2075,1,-93,601,-36,11,189,0,0,0,0,0,0,0,0,0,0,0
0,0,2080,5,-99,604,-36,11,195,0,0,0,0,0,0,0,0,0,0,0
0,0,2079,3,-102,603,-35,11,189,0,0,0,0,0,0,0,0,0,0,0
0,0,2071,-5,-95,603,-33,11,181,0,0,0,0,0,0,0,0,0,0,0
0,0,2076,-1,-96,601,-34,13,188,0,0,0,0,0,0,0,0,0,0,0
0,0,2078,1,-101,602,-34,13,189,0,0,0,0,0,0,0,0,0,0,0
0,0,2076,-1,-91,602,-35,12,192,0,0,0,0,0,0,0,0,0,0,0
0,0,2070,0,-101,602,-36,12,177,0,0,0,0,0,0,0,0,0,0,0
0,0,2073,-1,-98,604,-35,12,184,0,0,0,0,0,0,0,0,0,0,0
0,0,2072,8,-109,602,-35,11,179,0,0,0,0,0,0,0,0,0,0,0
0,0,2081,4,-90,604,-36,9,202,0,0,0,0,0,0,0,0,0,0,0
0,0,2078,10,-101,601,-34,12,196,0,0,0,0,0,0,0,0,0,0,0
0,0,2077,3,-102,601,-35,12,186,0,0,0,0,0,0,0,0,0,0,0
0,0,2073,3,-99,601,-36,11,183,0,0,0,0,0,0,0,0,0,0,0
0,0,2073,5,-101,602,-35,14,188,0,0,0,0,0,0,0,0,0,0,0
0,0,2076,0,-87,603,-35,12,199,0,0,0,0,0,0,0,0,0,0,0
0,0,2075,9,-96,602,-36,11,195,0,0,0,0,0,0,0,0,0,0,0
0,0,2087,-1,-92,602,-34,11,202,0,0,0,0,0,0,0,0,0,0,0
0,0,2080,6,-98,601,-35,12,196,0,0,0,0,0,0,0,0,0,0,0
0,0,2080,5,-91,601,-36,12,201,0,0,0,0,0,0,0,0,0,0,0
0,0,2080,3,-100,602,-34,10,191,0,0,0,0,0,0,0,0,0,0,0
0,0,2078,5,-95,601,-35,10,194,0,0,0,0,0,0,0,0,0,0,0
0,0,2080,3,-102,600,-35,11,187,0,0,0,0,0,0,0,0,0,0,0
0,0,2074,3,-97,602,-34,13,191,0,0,0,0,0,0,0,0,0,0,0
0,0,2074,4,-108,602,-35,12,179,0,0,0,0,0,0,0,0,0,0,0
0,0,2072,3,-107,600,-34,14,178,0,0,0,0,0,0,0,0,0,0,0
0,0,2081,1,-92,602,-36,11,197,0,0,0,0,0,0,0,0,0,0,0
0,0,2074,-1,-90,603,-37,12,190,0,0,0,0,0,0,0,0,0,0,0
0,0,2068,1,-107,602,-34,12,172,0,0,0,0,0,0,0,0,0,0,0
0,0,2081,5,-102,600,-38,11,187,0,0,0,0,0,0,0,0,0,0,0
0,0,2079,4,-83,602,-35,13,210,0,0,0,0,0,0,0,0,0,0,0
0,0,2080,5,-91,602,-34,11,203,0,0,0,0,0,0,0,0,0,0,0
0,0,2077,4,-104,602,-36,11,184,0,0,0,0,0,0,0,0,0,0,0
0,0,2072,6,-100,603,-37,11,185,0,0,0,0,0,0,0,0,0,0,0
0,0,2075,5,-103,601,-35,12,185,0,0,0,0,0,0,0,0,0,0,0
0,0,2068,8,-88,601,-35,10,194,0,0,0,0,0,0,0,0,0,0,0
0,0,2065,3,-87,602,-34,14,193,0,0,0,0,0,0,0,0,0,0,0
0,0,2074,6,-106,603,-34,11,184,0,0,0,0,0,0,0,0,0,0,0
0,0,2079,12,-102,601,-36,11,195,0,0,0,0,0,0,0,0,0,0,0
0,0,2072,12,-101,601,-35,12,191,0,0,0,0,0,0,0,0,0,0,0
0,0,2074,0,-87,601,-35,14,197,0,0,0,0,0,0,0,0,0,0,0
0,0,2075,0,-94,603,-35,12,191,0,0,0,0,0,0,0,0,0,0,0
0,0,2080,9,-102,601,-35,12,195,0,0,0,0,0,0,0,0,0,0,0
0,0,2077,3,-96,601,-36,12,191,0,0,0,0,0,0,0,0,0,0,0
0,0,2073,4,-102,601,-35,12,183,0,0,0,0,0,0,0,0,0,0,0
0,0,2076,9,-98,601,-35,12,195,0,0,0,0,0,0,0,0,0,0,0
0,0,2077,10,-105,600,-35,11,188,0,0,0,0,0,0,0,0,0,0,0
0,0,2081,-1,-107,602,-34,12,182,0,0,0,0,0,0,0,0,0,0,0
0,0,2069,10,-101,603,-34,11,188,0,0,0,0,0,0,0,0,0,0,0
0,0,2071,0,-92,600,-36,12,185,0,0,0,0,0,0,0,0,0,0,0
0,0,2074,5,-105,601,-35,12,182,0,0,0,0,0,0,0,0,0,0,0
0,0,2077,2,-101,602,-35,11,186,0,0,0,0,0,0,0,0,0,0,0
0,0,2074,1,-94,601,-36,11,187,0,0,0,0,0,0,0,0,0,0,0
0,0,2079,1,-102,601,-35,12,186,0,0,0,0,0,0,0,0,0,0,0
0,0,2074,3,-94,602,-34,12,193,0,0,0,0,0,0,0,0,0,0,0
0,0,2072,6,-104,602,-35,12,183,0,0,0,0,0,0,0,0,0,0,0
0,0,2079,6,-98,602,-34,12,197,0,0,0,0,0,0,0,0,0,0,0
0,0,2079,4,-89,601,-36,11,200,0,0,0,0,0,0,0,0,0,0,0
0,0,2073,6,-109,602,-34,12,180,0,0,0,0,0,0,0,0,0,0,0
0,0,2076,4,-96,602,-37,12,191,0,0,0,0,0,0,0,0,0,0,0
0,0,2070,6,-102,601,-35,12,182,0,0,0,0,0,0,0,0,0,0,0
0,0,2074,3,-96,603,-36,10,188,0,0,0,0,0,0,0,0,0,0,0
0,0,2067,8,-104,603,-34,11,181,0,0,0,0,0,0,0,0,0,0,0
0,0,2072,-10,-97,602,-35,9,170,0,0,0,0,0,0,0,0,0,0,0
0,0,2081,9,-101,602,-35,10,196,0,0,0,0,0,0,0,0,0,0,0
0,0,2071,8,-108,601,-35,11,178,0,0,0,0,0,0,0,0,0,0,0
0,0,2071,6,-90,603,-35,12,197,0,0,0,0,0,0,0,0,0,0,0
0,0,2078,0,-95,603,-35,10,191,0,0,0,0,0,0,0,0,0,0,0
0,0,2086,-1,-101,604,-35,10,192,0,0,0,0,0,0,0,0,0,0,0
0,0,2078,-3,-106,601,-34,11,176,0,0,0,0,0,0,0,0,0,0,0
0,0,2077,1,-90,603,-35,12,198,0,0,0,0,0,0,0,0,0,0,0
0,0,2067,5,-99,599,-35,12,179,0,0,0,0,0,0,0,0,0,0,0
0,0,2064,3,-95,600,-37,11,176,0,0,0,0,0,0,0,0,0,0,0
0,0,2071,3,-98,602,-34,12,186,0,0,0,0,0,0,0,0,0,0,0
0,0,2072,3,-90,603,-35,11,194,0,0,0,0,0,0,0,0,0,0,0
0,0,2077,9,-88,602,-34,10,206,0,0,0,0,0,0,0,0,0,0,0
0,0,2076,5,-96,603,-34,11,195,0,0,0,0,0,0,0,0,0,0,0
0,0,2073,8,-96,601,-34,11,193,0,0,0,0,0,0,0,0,0,0,0
0,0,2070,6,-97,601,-36,11,185,0,0,0,0,0,0,0,0,0,0,0
0,0,2074,3,-100,601,-33,12,187,0,0,0,0,0,0,0,0,0,0,0
0,0,2071,3,-108,601,-35,11,173,0,0,0,0,0,0,0,0,0,0,0
0,0,2068,1,-106,602,-36,13,172,0,0,0,0,0,0,0,0,0,0,0
0,0,2071,6,-96,601,-36,12,188,0,0,0,0,0,0,0,0,0,0,0
0,0,2075,7,-100,601,-34,11,190,0,0,0,0,0,0,0,0,0,0,0
0,0,2072,5,-99,603,-35,12,188,0,0,0,0,0,0,0,0,0,0,0
0,0,2073,14,-104,603,-36,10,190,0,0,0,0,0,0,0,0,0,0,0
0,0,2072,16,-97,602,-34,10,199,0,0,0,0,0,0,0,0,0,0,0
0,0,2073,2,-108,601,-35,12,175,0,0,0,0,0,0,0,0,0,0,0
0,0,2083,3,-104,603,-36,13,192,0,0,0,0,0,0,0,0,0,0,0
0,0,2079,-1,-101,601,-36,11,182,0,0,0,0,0,0,0,0,0,0,0
0,0,2074,5,-103,603,-37,13,185,0,0,0,0,0,0,0,0,0,0,0
0,0,2072,7,-95,602,-35,12,193,0,0,0,0,0,0,0,0,0,0,0
0,0,2072,11,-107,602,-35,11,184,0,0,0,0,0,0,0,0,0,0,0
0,0,2072,7,-98,602,-36,11,188,0,0,0,0,0,0,0,0,0,0,0
0,0,2071,6,-100,602,-35,12,186,0,0,0,0,0,0,0,0,0,0,0
0,0,2080,5,-93,603,-35,13,203,0,0,0,0,0,0,0,0,0,0,0
0,0,2072,4,-99,602,-33,13,189,0,0,0,0,0,0,0,0,0,0,0
0,0,2074,2,-93,602,-35,12,192,0,0,0,0,0,0,0,0,0,0,0
0,0,2079,2,-103,600,-35,12,185,0,0,0,0,0,0,0,0,0,0,0
0,0,2076,-6,-100,602,-35,12,178,0,0,0,0,0,0,0,0,0,0,0
0,0,2075,3,-92,602,-34,12,196,0,0,0,0,0,0,0,0,0,0,0
0,0,2073,1,-101,601,-35,10,179,0,0,0,0,0,0,0,0,0,0,0
0,0,2076,3,-91,600,-35,11,194,0,0,0,0,0,0,0,0,0,0,0
0,0,2071,7,-108,603,-35,10,178,0,0,0,0,0,0,0,0,0,0,0
0,0,2072,3,-101,602,-36,10,180,0,0,0,0,0,0,0,0,0,0,0
0,0,2074,2,-97,603,-34,12,190,0,0,0,0,0,0,0,0,0,0,0
0,0,2075,6,-111,603,-35,10,178,0,0,0,0,0,0,0,0,0,0,0
0,0,2075,2,-105,601,-37,13,179,0,0,0,0,0,0,0,0,0,0,0
0,0,2073,-1,-101,601,-33,12,180,0,0,0,0,0,0,0,0,0,0,0
0,0,2078,6,-104,602,-35,11,188,0,0,0,0,0,0,0,0,0,0,0
0,0,2075,10,-104,602,-35,10,188,0,0,0,0,0,0,0,0,0,0,0
0,0,2077,-1,-89,603,-35,11,195,0,0,0,0,0,0,0,0,0,0,0
0,0,2082,-1,-97,602,-36,12,191,0,0,0,0,0,0,0,0,0,0,0
0,0,2084,6,-102,602,-36,10,194,0,0,0,0,0,0,0,0,0,0,0
0,0,2071,1,-104,600,-35,11,174,0,0,0,0,0,0,0,0,0,0,0
0,0,2076,1,-104,603,-35,12,183,0,0,0,0,0,0,0,0,0,0,0
0,0,2080,7,-101,604,-34,13,199,0,0,0,0,0,0,0,0,0,0,0
0,0,2073,7,-95,602,-37,12,192,0,0,0,0,0,0,0,0,0,0,0
0,0,2078,-3,-109,602,-35,10,172,0,0,0,0,0,0,0,0,0,0,0
0,0,2077,6,-97,601,-36,12,193,0,0,0,0,0,0,0,0,0,0,0
0,0,2085,2,-104,600,-35,14,192,0,0,0,0,0,0,0,0,0,0,0
0,0,2073,1,-90,602,-35,12,193,0,0,0,0,0,0,0,0,0,0,0
0,0,2069,5,-97,603,-34,11,187,0,0,0,0,0,0,0,0,0,0,0
0,0,2076,-2,-95,602,-34,13,189,0,0,0,0,0,0,0,0,0,0,0
0,0,2069,0,-108,602,-36,12,169,0,0,0,0,0,0,0,0,0,0,0
0,0,2080,-1,-96,602,-33,13,194,0,0,0,0,0,0,0,0,0,0,0
0,0,2072,6,-100,602,-35,11,186,0,0,0,0,0,0,0,0,0,0,0
0,0,2072,-1,-105,601,-35,12,173,0,0,0,0,0,0,0,0,0,0,0
0,0,2079,9,-93,601,-36,11,201,0,0,0,0,0,0,0,0,0,0,0
0,0,2068,5,-97,602,-37,12,183,0,0,0,0,0,0,0,0,0,0,0
0,0,2073,8,-92,602,-36,14,199,0,0,0,0,0,0,0,0,0,0,0
0,0,2068,6,-99,604,-37,11,183,0,0,0,0,0,0,0,0,0,0,0
0,0,2071,5,-98,603,-34,12,189,0,0,0,0,0,0,0,0,0,0,0
0,0,2071,9,-109,601,-35,11,178,0,0,0,0,0,0,0,0,0,0,0
0,0,2076,5,-89,600,-35,12,199,0,0,0,0,0,0,0,0,0,0,0
0,0,2076,7,-83,602,-35,12,209,0,0,0,0,0,0,0,0,0,0,0
0,0,2080,1,-97,603,-35,11,193,0,0,0,0,0,0,0,0,0,0,0
0,0,2076,8,-101,601,-36,13,191,0,0,0,0,0,0,0,0,0,0,0
0,0,2078,1,-95,602,-35,12,193,0,0,0,0,0,0,0,0,0,0,0
0,0,2076,5,-94,603,-35,11,196,0,0,0,0,0,0,0,0,0,0,0
0,0,2077,-1,-102,603,-36,11,181,0,0,0,0,0,0,0,0,0,0,0
0,0,2079,5,-102,601,-36,11,188,0,0,0,0,0,0,0,0,0,0,0
0,0,2077,4,-106,601,-37,12,181,0,0,0,0,0,0,0,0,0,0,0
0,0,2085,7,-103,602,-34,13,200,0,0,0,0,0,0,0,0,0,0,0
0,0,2077,3,-102,600,-35,12,185,0,0,0,0,0,0,0,0,0,0,0
0,0,2074,1,-103,602,-33,10,181,0,0,0,0,0,0,0,0,0,0,0
0,0,2079,2,-96,603,-36,10,192,0,0,0,0,0,0,0,0,0,0,0
0,0,2079,10,-92,603,-36,12,206,0,0,0,0,0,0,0,0,0,0,0
0,0,2073,10,-105,602,-36,12,186,0,0,0,0,0,0,0,0,0,0,0
0,0,2083,5,-97,601,-35,12,199,0,0,0,0,0,0,0,0,0,0,0
0,0,2072,2,-90,603,-36,13,194,0,0,0,0,0,0,0,0,0,0,0
0,0,2074,5,-104,603,-33,13,188,0,0,0,0,0,0,0,0,0,0,0
0,0,2071,11,-90,602,-35,14,203,0,0,0,0,0,0,0,0,0,0,0
0,0,2079,2,-84,602,-33,12,208,0,0,0,0,0,0,0,0,0,0,0
0,0,2071,-3,-97,601,-34,11,178,0,0,0,0,0,0,0,0,0,0,0
0,0,2070,9,-110,602,-35,13,179,0,0,0,0,0,0,0,0,0,0,0
0,0,2072,3,-95,599,-33,12,188,0,0,0,0,0,0,0,0,0,0,0
0,0,2078,3,-108,602,-34,11,182,0,0,0,0,0,0,0,0,0,0,0
0,0,2070,7,-96,602,-36,11,188,0,0,0,0,0,0,0,0,0,0,0
0,0,2081,1,-98,601,-35,11,191,0,0,0,0,0,0,0,0,0,0,0
0,0,2072,8,-96,602,-37,11,190,0,0,0,0,0,0,0,0,0,0,0
0,0,2076,10,-89,600,-36,11,202,0,0,0,0,0,0,0,0,0,0,0
0,0,2078,8,-101,601,-35,10,191,0,0,0,0,0,0,0,0,0,0,0
0,0,2086,6,-92,603,-36,10,207,0,0,0,0,0,0,0,0,0,0,0
0,0,2077,-2,-102,603,-35,9,179,0,0,0,0,0,0,0,0,0,0,0
0,0,2074,3,-95,600,-35,10,187,0,0,0,0,0,0,0,0,0,0,0
0,0,2067,6,-105,602,-37,11,174,0,0,0,0,0,0,0,0,0,0,0
0,0,2075,11,-105,603,-35,11,190,0,0,0,0,0,0,0,0,0,0,0
0,0,2072,0,-98,603,-35,12,184,0,0,0,0,0,0,0,0,0,0,0
0,0,2077,-3,-106,603,-34,12,178,0,0,0,0,0,0,0,0,0,0,0
0,0,2074,1,-107,602,-35,12,177,0,0,0,0,0,0,0,0,0,0,0
0,0,2082,-2,-104,604,-35,11,185,0,0,0,0,0,0,0,0,0,0,0
0,0,2073,7,-104,602,-35,11,184,0,0,0,0,0,0,0,0,0,0,0
0,0,2073,4,-92,602,-35,11,193,0,0,0,0,0,0,0,0,0,0,0
0,0,2075,2,-92,603,-35,10,193,0,0,0,0,0,0,0,0,0,0,0
0,0,2077,0,-90,602,-34,11,196,0,0,0,0,0,0,0,0,0,0,0
0,0,2075,-4,-100,602,-36,13,179,0,0,0,0,0,0,0,0,0,0,0
0,0,2079,1,-97,605,-34,12,196,0,0,0,0,0,0,0,0,0,0,0
0,0,2068,2,-100,602,-34,11,179,0,0,0,0,0,0,0,0,0,0,0
0,0,2074,9,-95,605,-34,12,201,0,0,0,0,0,0,0,0,0,0,0
0,0,2075,11,-101,603,-35,11,194,0,0,0,0,0,0,0,0,0,0,0
0,0,2075,7,-105,602,-35,10,184,0,0,0,0,0,0,0,0,0,0,0
0,0,2071,8,-103,602,-33,11,186,0,0,0,0,0,0,0,0,0,0,0
0,0,2073,8,-105,603,-35,13,187,0,0,0,0,0,0,0,0,0,0,0
0,0,2076,5,-113,602,-34,12,178,0,0,0,0,0,0,0,0,0,0,0
0,0,2073,9,-106,602,-35,11,184,0,0,0,0,0,0,0,0,0,0,0
0,0,2072,10,-95,604,-35,11,197,0,0,0,0,0,0,0,0,0,0,0
0,0,2073,7,-97,600,-34,13,192,0,0,0,0,0,0,0,0,0,0,0
0,0,2076,9,-103,602,-35,13,192,0,0,0,0,0,0,0,0,0,0,0
0,0,2078,5,-108,602,-35,11,183,0,0,0,0,0,0,0,0,0,0,0
0,0,2078,2,-98,603,-34,13,194,0,0,0,0,0,0,0,0,0,0,0
0,0,2073,7,-107,602,-37,12,180,0,0,0,0,0,0,0,0,0,0,0
0,0,2080,4,-94,602,-36,11,197,0,0,0,0,0,0,0,0,0,0,0
0,0,2078,-2,-117,603,-35,13,169,0,0,0,0,0,0,0,0,0,0,0
0,0,2069,7,-106,602,-36,10,176,0,0,0,0,0,0,0,0,0,0,0
0,0,2082,2,-97,602,-36,11,194,0,0,0,0,0,0,0,0,0,0,0
0,0,2079,2,-93,600,-37,12,193,0,0,0,0,0,0,0,0,0,0,0
0,0,2072,0,-99,602,-37,10,178,0,0,0,0,0,0,0,0,0,0,0
0,0,2072,7,-94,602,-35,11,193,0,0,0,0,0,0,0,0,0,0,0
0,0,2072,7,-83,601,-35,11,203,0,0,0,0,0,0,0,0,0,0,0
0,0,2078,8,-93,602,-36,11,200,0,0,0,0,0,0,0,0,0,0,0
0,0,2073,2,-98,601,-35,13,186,0,0,0,0,0,0,0,0,0,0,0
0,0,2077,0,-103,602,-35,12,183,0,0,0,0,0,0,0,0,0,0,0
0,0,2074,7,-102,603,-34,11,189,0,0,0,0,0,0,0,0,0,0,0
0,0,2074,5,-104,602,-35,11,183,0,0,0,0,0,0,0,0,0,0,0
0,0,2074,0,-100,601,-36,11,180,0,0,0,0,0,0,0,0,0,0,0
0,0,2072,7,-97,603,-34,12,193,0,0,0,0,0,0,0,0,0,0,0
0,0,2078,1,-103,601,-34,12,185,0,0,0,0,0,0,0,0,0,0,0
0,0,2075,0,-105,603,-34,10,179,0,0,0,0,0,0,0,0,0,0,0
0,0,2076,10,-104,603,-34,9,190,0,0,0,0,0,0,0,0,0,0,0
0,0,2072,-1,-105,602,-35,10,172,0,0,0,0,0,0,0,0,0,0,0
0,0,2069,3,-105,601,-35,12,175,0,0,0,0,0,0,0,0,0,0,0
0,0,2075,1,-96,604,-35,13,192,0,0,0,0,0,0,0,0,0,0,0
0,0,2070,-2,-102,603,-34,12,176,0,0,0,0,0,0,0,0,0,0,0
0,0,2072,4,-97,601,-34,12,188,0,0,0,0,0,0,0,0,0,0,0
0,0,2072,2,-106,600,-35,12,175,0,0,0,0,0,0,0,0,0,0,0
0,0,2073,2,-91,602,-36,11,191,0,0,0,0,0,0,0,0,0,0,0
0,0,2075,3,-93,601,-35,10,191,0,0,0,0,0,0,0,0,0,0,0
0,0,2077,6,-99,600,-36,12,190,0,0,0,0,0,0,0,0,0,0,0
0,0,2076,2,-110,603,-34,12,179,0,0,0,0,0,0,0,0,0,0,0
0,0,2078,-1,-101,601,-35,12,183,0,0,0,0,0,0,0,0,0,0,0
0,0,2073,5,-93,602,-36,12,193,0,0,0,0,0,0,0,0,0,0,0
0,0,2077,8,-102,602,-36,12,191,0,0,0,0,0,0,0,0,0,0,0
0,0,2075,7,-95,601,-35,12,195,0,0,0,0,0,0,0,0,0,0,0
0,0,2069,4,-91,602,-35,13,192,0,0,0,0,0,0,0,0,0,0,0
0,0,2074,4,-97,604,-34,12,193,0,0,0,0,0,0,0,0,0,0,0
0,0,2081,2,-102,603,-35,10,189,0,0,0,0,0,0,0,0,0,0,0
0,0,2076,10,-104,602,-35,14,193,0,0,0,0,0,0,0,0,0,0,0
0,0,2073,5,-104,602,-35,11,182,0,0,0,0,0,0,0,0,0,0,0
0,0,2076,4,-94,602,-35,11,194,0,0,0,0,0,0,0,0,0,0,0
0,0,2070,-3,-103,601,-34,12,172,0,0,0,0,0,0,0,0,0,0,0
0,0,2078,6,-96,602,-34,12,198,0,0,0,0,0,0,0,0,0,0,0
0,0,2080,2,-105,603,-34,12,188,0,0,0,0,0,0,0,0,0,0,0
0,0,2075,4,-97,604,-37,11,190,0,0,0,0,0,0,0,0,0,0,0
0,0,2078,4,-92,602,-35,11,198,0,0,0,0,0,0,0,0,0,0,0
0,0,2075,-2,-99,602,-35,12,182,0,0,0,0,0,0,0,0,0,0,0
0,0,2072,4,-108,599,-35,11,173,0,0,0,0,0,0,0,0,0,0,0
0,0,2065,7,-99,603,-35,11,182,0,0,0,0,0,0,0,0,0,0,0
0,0,2078,-3,-105,603,-34,12,180,0,0,0,0,0,0,0,0,0,0,0
0,0,2075,-2,-92,603,-35,12,190,0,0,0,0,0,0,0,0,0,0,0
0,0,2077,5,-104,602,-34,12,188,0,0,0,0,0,0,0,0,0,0,0
0,0,2075,7,-105,602,-36,13,186,0,0,0,0,0,0,0,0,0,0,0
0,0,2076,8,-100,604,-36,10,192,0,0,0,0,0,0,0,0,0,0,0
0,0,2082,-4,-94,602,-35,12,192,0,0,0,0,0,0,0,0,0,0,0
0,0,2069,9,-93,600,-36,11,190,0,0,0,0,0,0,0,0,0,0,0
0,0,2064,7,-97,600,-35,12,181,0,0,0,0,0,0,0,0,0,0,0
0,0,2072,0,-92,599,-34,13,188,0,0,0,0,0,0,0,0,0,0,0
0,0,2078,8,-92,602,-35,12,203,0,0,0,0,0,0,0,0,0,0,0
0,0,2081,0,-104,603,-36,12,186,0,0,0,0,0,0,0,0,0,0,0
0,0,2067,6,-103,603,-35,13,181,0,0,0,0,0,0,0,0,0,0,0
0,0,2070,7,-101,602,-35,10,183,0,0,0,0,0,0,0,0,0,0,0
0,0,2073,11,-89,602,-35,11,203,0,0,0,0,0,0,0,0,0,0,0
0,0,2075,0,-105,602,-35,11,178,0,0,0,0,0,0,0,0,0,0,0
0,0,2079,10,-95,603,-33,11,205,0,0,0,0,0,0,0,0,0,0,0
0,0,2068,17,-96,602,-34,11,198,0,0,0,0,0,0,0,0,0,0,0
0,0,2077,8,-87,602,-36,11,205,0,0,0,0,0,0,0,0,0,0,0
0,0,2070,8,-101,600,-35,13,185,0,0,0,0,0,0,0,0,0,0,0
0,0,2072,-1,-92,604,-35,12,189,0,0,0,0,0,0,0,0,0,0,0
0,0,2070,2,-86,602,-35,12,195,0,0,0,0,0,0,0,0,0,0,0
0,0,2072,1,-90,601,-35,11,190,0,0,0,0,0,0,0,0,0,0,0
0,0,2073,4,-99,602,-37,11,184,0,0,0,0,0,0,0,0,0,0,0
0,0,2079,4,-105,601,-36,9,182,0,0,0,0,0,0,0,0,0,0,0
0,0,2069,6,-96,601,-34,11,187,0,0,0,0,0,0,0,0,0,0,0
0,0,2074,11,-110,600,-34,11,182,0,0,0,0,0,0,0,0,0,0,0
0,0,2080,9,-91,601,-34,11,206,0,0,0,0,0,0,0,0,0,0,0
0,0,2074,3,-90,602,-36,13,196,0,0,0,0,0,0,0,0,0,0,0
0,0,2073,1,-103,600,-36,10,175,0,0,0,0,0,0,0,0,0,0,0
0,0,2080,-1,-94,601,-36,11,190,0,0,0,0,0,0,0,0,0,0,0
0,0,2071,1,-97,601,-35,11,182,0,0,0,0,0,0,0,0,0,0,0
0,0,2075,-5,-99,601,-35,12,178,0,0,0,0,0,0,0,0,0,0,0
0,0,2083,-1,-99,602,-35,12,191,0,0,0,0,0,0,0,0,0,0,0
0,0,2080,2,-92,602,-34,12,200,0,0,0,0,0,0,0,0,0,0,0
0,0,2073,-1,-95,602,-34,12,186,0,0,0,0,0,0,0,0,0,0,0
0,0,2073,4,-96,604,-34,12,193,0,0,0,0,0,0,0,0,0,0,0
0,0,2074,3,-103,601,-36,9,178,0,0,0,0,0,0,0,0,0,0,0
0,0,2073,5,-97,601,-36,10,186,0,0,0,0,0,0,0,0,0,0,0
0,0,2074,6,-107,603,-35,12,183,0,0,0,0,0,0,0,0,0,0,0
0,0,2073,3,-105,603,-34,12,182,0,0,0,0,0,0,0,0,0,0,0
0,0,2078,5,-106,601,-37,10,181,0,0,0,0,0,0,0,0,0,0,0
0,0,2077,-4,-94,602,-33,12,189,0,0,0,0,0,0,0,0,0,0,0
0,0,2079,5,-95,601,-34,11,197,0,0,0,0,0,0,0,0,0,0,0
0,0,2066,4,-96,601,-34,11,182,0,0,0,0,0,0,0,0,0,0,0
0,0,2070,3,-103,602,-34,13,181,0,0,0,0,0,0,0,0,0,0,0
0,0,2078,4,-94,602,-35,11,196,0,0,0,0,0,0,0,0,0,0,0
0,0,2081,4,-99,601,-36,11,192,0,0,0,0,0,0,0,0,0,0,0
0,0,2077,4,-98,602,-37,12,190,0,0,0,0,0,0,0,0,0,0,0
0,0,2078,2,-95,602,-36,12,193,0,0,0,0,0,0,0,0,0,0,0
0,0,2079,9,-101,603,-36,11,195,0,0,0,0,0,0,0,0,0,0,0
0,0,2077,4,-85,601,-35,11,203,0,0,0,0,0,0,0,0,0,0,0
0,0,2078,0,-99,602,-36,11,186,0,0,0,0,0,0,0,0,0,0,0
0,0,2080,9,-98,602,-33,13,203,0,0,0,0,0,0,0,0,0,0,0
0,0,2075,3,-94,602,-36,11,191,0,0,0,0,0,0,0,0,0,0,0
0,0,2074,3,-100,602,-33,12,188,0,0,0,0,0,0,0,0,0,0,0
0,0,2065,-4,-98,603,-35,11,171,0,0,0,0,0,0,0,0,0,0,0
0,0,2078,5,-102,601,-34,12,190,0,0,0,0,0,0,0,0,0,0,0
0,0,2069,2,-97,601,-35,12,182,0,0,0,0,0,0,0,0,0,0,0
0,0,2071,14,-104,600,-35,13,189,0,0,0,0,0,0,0,0,0,0,0
0,0,2074,13,-95,602,-36,13,201,0,0,0,0,0,0,0,0,0,0,0
0,0,2070,5,-95,601,-35,12,188,0,0,0,0,0,0,0,0,0,0,0
0,0,2078,-2,-92,602,-36,12,191,0,0,0,0,0,0,0,0,0,0,0
0,0,2077,4,-108,602,-35,11,181,0,0,0,0,0,0,0,0,0,0,0
0,0,2076,15,-99,603,-33,11,203,0,0,0,0,0,0,0,0,0,0,0
0,0,2074,12,-100,603,-35,15,199,0,0,0,0,0,0,0,0,0,0,0
0,0,2071,5,-105,602,-35,11,179,0,0,0,0,0,0,0,0,0,0,0
0,0,2072,4,-96,602,-35,12,189,0,0,0,0,0,0,0,0,0,0,0
0,0,2073,3,-98,602,-34,12,188,0,0,0,0,0,0,0,0,0,0,0
0,0,2074,8,-92,603,-34,12,201,0,0,0,0,0,0,0,0,0,0,0
0,0,2072,7,-94,601,-36,11,191,0,0,0,0,0,0,0,0,0,0,0
0,0,2067,0,-104,601,-36,11,169,0,0,0,0,0,0,0,0,0,0,0
0,0,2072,3,-99,601,-35,12,184,0,0,0,0,0,0,0,0,0,0,0
0,0,2074,4,-101,602,-36,11,184,0,0,0,0,0,0,0,0,0,0,0
0,0,2070,9,-95,602,-34,11,193,0,0,0,0,0,0,0,0,0,0,0
0,0,2075,9,-102,603,-35,11,191,0,0,0,0,0,0,0,0,0,0,0
0,0,2069,11,-96,601,-34,11,192,0,0,0,0,0,0,0,0,0,0,0
0,0,2083,-4,-93,603,-34,13,197,0,0,0,0,0,0,0,0,0,0,0
0,0,2077,6,-91,603,-34,10,201,0,0,0,0,0,0,0,0,0,0,0
0,0,2075,3,-99,602,-35,11,187,0,0,0,0,0,0,0,0,0,0,0
0,0,2078,5,-102,601,-37,12,187,0,0,0,0,0,0,0,0,0,0,0
0,0,2074,9,-106,602,-34,12,187,0,0,0,0,0,0,0,0,0,0,0
0,0,2069,1,-93,601,-37,12,183,0,0,0,0,0,0,0,0,0,0,0
0,0,2070,0,-101,602,-36,12,177,0,0,0,0,0,0,0,0,0,0,0
0,0,2073,4,-95,602,-36,12,190,0,0,0,0,0,0,0,0,0,0,0
0,0,2078,6,-100,602,-34,12,194,0,0,0,0,0,0,0,0,0,0,0
0,0,2077,1,-97,600,-35,11,187,0,0,0,0,0,0,0,0,0,0,0
0,0,2083,10,-104,603,-36,11,197,0,0,0,0,0,0,0,0,0,0,0
0,0,2074,4,-98,602,-36,13,189,0,0,0,0,0,0,0,0,0,0,0
0,0,2071,1,-99,601,-35,9,178,0,0,0,0,0,0,0,0,0,0,0
0,0,2078,6,-93,602,-34,11,200,0,0,0,0,0,0,0,0,0,0,0
0,0,2067,7,-105,603,-34,12,180,0,0,0,0,0,0,0,0,0,0,0
0,0,2069,8,-92,603,-36,14,196,0,0,0,0,0,0,0,0,0,0,0
0,0,2070,11,-97,603,-36,10,191,0,0,0,0,0,0,0,0,0,0,0
0,0,2070,7,-98,602,-34,11,188,0,0,0,0,0,0,0,0,0,0,0
0,0,2074,11,-104,601,-35,12,189,0,0,0,0,0,0,0,0,0,0,0
0,0,2068,8,-97,602,-35,11,187,0,0,0,0,0,0,0,0,0,0,0
0,0,2072,0,-100,601,-35,11,179,0,0,0,0,0,0,0,0,0,0,0
0,0,2071,6,-101,603,-35,11,185,0,0,0,0,0,0,0,0,0,0,0
0,0,2073,9,-82,603,-36,10,207,0,0,0,0,0,0,0,0,0,0,0
0,0,2072,12,-101,601,-36,11,189,0,0,0,0,0,0,0,0,0,0,0
0,0,2076,11,-97,603,-35,11,199,0,0,0,0,0,0,0,0,0,0,0
0,0,2075,7,-104,602,-34,12,188,0,0,0,0,0,0,0,0,0,0,0
0,0,2076,-1,-84,602,-34,10,198,0,0,0,0,0,0,0,0,0,0,0
0,0,2069,0,-88,601,-34,11,189,0,0,0,0,0,0,0,0,0,0,0
0,0,2078,1,-101,601,-34,13,188,0,0,0,0,0,0,0,0,0,0,0
0,0,2075,-6,-104,602,-35,11,172,0,0,0,0,0,0,0,0,0,0,0
0,0,2073,6,-107,602,-37,12,179,0,0,0,0,0,0,0,0,0,0,0
0,0,2076,0,-102,602,-36,13,183,0,0,0,0,0,0,0,0,0,0,0
0,0,2076,1,-102,603,-34,13,187,0,0,0,0,0,0,0,0,0,0,0
0,0,2077,6,-97,603,-34,12,197,0,0,0,0,0,0,0,0,0,0,0
0,0,2076,6,-101,603,-36,12,190,0,0,0,0,0,0,0,0,0,0,0
0,0,2079,2,-99,600,-36,11,187,0,0,0,0,0,0,0,0,0,0,0
0,0,2075,1,-103,604,-34,12,185,0,0,0,0,0,0,0,0,0,0,0
0,0,2076,7,-99,602,-35,12,193,0,0,0,0,0,0,0,0,0,0,0
0,0,2072,5,-107,600,-34,12,178,0,0,0,0,0,0,0,0,0,0,0
0,0,2075,4,-109,602,-34,11,179,0,0,0,0,0,0,0,0,0,0,0
0,0,2081,3,-102,601,-35,12,190,0,0,0,0,0,0,0,0,0,0,0
0,0,2076,6,-92,602,-35,10,197,0,0,0,0,0,0,0,0,0,0,0
0,0,2076,5,-95,602,-35,11,194,0,0,0,0,0,0,0,0,0,0,0
0,0,2073,14,-98,600,-34,11,196,0,0,0,0,0,0,0,0,0,0,0
0,0,2071,12,-84,601,-37,12,205,0,0,0,0,0,0,0,0,0,0,0
0,0,2075,-6,-90,602,-36,11,185,0,0,0,0,0,0,0,0,0,0,0
0,0,2074,5,-99,602,-34,11,189,0,0,0,0,0,0,0,0,0,0,0
0,0,2072,4,-96,603,-35,10,188,0,0,0,0,0,0,0,0,0,0,0
0,0,2076,-3,-106,604,-36,12,176,0,0,0,0,0,0,0,0,0,0,0
0,0,2075,-5,-96,603,-35,13,184,0,0,0,0,0,0,0,0,0,0,0
0,0,2073,5,-103,604,-35,13,187,0,0,0,0,0,0,0,0,0,0,0
0,0,2072,1,-108,603,-34,13,177,0,0,0,0,0,0,0,0,0,0,0
0,0,2071,3,-106,601,-36,12,175,0,0,0,0,0,0,0,0,0,0,0
0,0,2077,3,-104,601,-34,11,184,0,0,0,0,0,0,0,0,0,0,0
0,0,2077,4,-101,602,-36,11,187,0,0,0,0,0,0,0,0,0,0,0
0,0,2076,4,-100,601,-35,11,187,0,0,0,0,0,0,0,0,0,0,0
0,0,2076,9,-87,602,-36,12,206,0,0,0,0,0,0,0,0,0,0,0
0,0,2074,4,-94,603,-34,10,193,0,0,0,0,0,0,0,0,0,0,0
0,0,2079,15,-93,602,-36,13,210,0,0,0,0,0,0,0,0,0,0,0
0,0,2076,2,-95,601,-35,12,191,0,0,0,0,0,0,0,0,0,0,0
0,0,2071,2,-115,603,-35,11,167,0,0,0,0,0,0,0,0,0,0,0
0,0,2072,5,-102,603,-35,12,185,0,0,0,0,0,0,0,0,0,0,0
0,0,2075,7,-95,601,-35,10,193,0,0,0,0,0,0,0,0,0,0,0
0,0,2070,4,-92,601,-35,11,189,0,0,0,0,0,0,0,0,0,0,0
0,0,2080,1,-86,603,-37,13,204,0,0,0,0,0,0,0,0,0,0,0
0,0,2065,0,-98,603,-36,11,175,0,0,0,0,0,0,0,0,0,0,0
0,0,2071,4,-109,602,-36,11,173,0,0,0,0,0,0,0,0,0,0,0
0,0,2077,1,-97,601,-34,12,190,0,0,0,0,0,0,0,0,0,0,0
0,0,2073,5,-98,600,-36,12,186,0,0,0,0,0,0,0,0,0,0,0
0,0,2076,1,-96,602,-35,13,191,0,0,0,0,0,0,0,0,0,0,0
0,0,2074,1,-100,602,-33,12,186,0,0,0,0,0,0,0,0,0,0,0
0,0,2075,10,-101,602,-35,11,192,0,0,0,0,0,0,0,0,0,0,0
0,0,2074,8,-103,602,-36,11,186,0,0,0,0,0,0,0,0,0,0,0
0,0,2072,8,-98,602,-36,12,190,0,0,0,0,0,0,0,0,0,0,0
0,0,2070,8,-96,603,-35,11,191,0,0,0,0,0,0,0,0,0,0,0
0,0,2070,0,-97,604,-37,11,181,0,0,0,0,0,0,0,0,0,0,0
0,0,2073,8,-98,602,-34,12,193,0,0,0,0,0,0,0,0,0,0,0
0,0,2074,7,-96,601,-36,11,191,0,0,0,0,0,0,0,0,0,0,0
0,0,2075,5,-103,601,-36,11,183,0,0,0,0,0,0,0,0,0,0,0
0,0,2069,4,-98,603,-36,11,183,0,0,0,0,0,0,0,0,0,0,0
0,0,2075,5,-115,602,-35,10,172,0,0,0,0,0,0,0,0,0,0,0
0,0,2078,7,-110,601,-36,11,181,0,0,0,0,0,0,0,0,0,0,0
0,0,2076,6,-105,603,-35,12,187,0,0,0,0,0,0,0,0,0,0,0
0,0,2082,6,-100,602,-36,11,195,0,0,0,0,0,0,0,0,0,0,0
0,0,2075,2,-96,604,-36,12,191,0,0,0,0,0,0,0,0,0,0,0
0,0,2078,0,-96,601,-35,13,191,0,0,0,0,0,0,0,0,0,0,0
0,0,2070,5,-92,603,-36,12,192,0,0,0,0,0,0,0,0,0,0,0
0,0,2077,4,-91,601,-36,11,196,0,0,0,0,0,0,0,0,0,0,0
0,0,2069,2,-98,601,-34,11,181,0,0,0,0,0,0,0,0,0,0,0
0,0,2076,9,-97,602,-35,11,196,0,0,0,0,0,0,0,0,0,0,0
0,0,2068,10,-102,603,-34,11,186,0,0,0,0,0,0,0,0,0,0,0
0,0,2074,9,-93,603,-35,12,200,0,0,0,0,0,0,0,0,0,0,0
0,0,2072,6,-108,601,-35,11,177,0,0,0,0,0,0,0,0,0,0,0
0,0,2069,12,-106,601,-35,12,183,0,0,0,0,0,0,0,0,0,0,0
0,0,2077,7,-101,602,-35,12,192,0,0,0,0,0,0,0,0,0,0,0
0,0,2078,11,-96,605,-35,12,205,0,0,0,0,0,0,0,0,0,0,0
0,0,2077,2,-97,604,-36,10,190,0,0,0,0,0,0,0,0,0,0,0
0,0,2081,14,-102,603,-36,11,201,0,0,0,0,0,0,0,0,0,0,0
0,0,2073,1,-90,601,-35,11,191,0,0,0,0,0,0,0,0,0,0,0
0,0,2070,2,-101,604,-34,10,181,0,0,0,0,0,0,0,0,0,0,0
0,0,2067,3,-95,603,-34,13,187,0,0,0,0,0,0,0,0,0,0,0
0,0,2069,6,-102,602,-34,13,184,0,0,0,0,0,0,0,0,0,0,0
0,0,2080,0,-96,601,-35,10,190,0,0,0,0,0,0,0,0,0,0,0
0,0,2067,-4,-99,602,-35,11,171,0,0,0,0,0,0,0,0,0,0,0
0,0,2076,4,-98,599,-34,10,187,0,0,0,0,0,0,0,0,0,0,0
0,0,2082,7,-107,601,-35,13,191,0,0,0,0,0,0,0,0,0,0,0
0,0,2072,-2,-98,601,-34,11,179,0,0,0,0,0,0,0,0,0,0,0
0,0,2073,7,-98,604,-35,10,191,0,0,0,0,0,0,0,0,0,0,0
0,0,2077,2,-87,602,-36,10,198,0,0,0,0,0,0,0,0,0,0,0
0,0,2071,3,-91,601,-35,11,190,0,0,0,0,0,0,0,0,0,0,0
0,0,2072,-7,-97,602,-36,12,175,0,0,0,0,0,0,0,0,0,0,0
0,0,2079,9,-98,603,-35,13,201,0,0,0,0,0,0,0,0,0,0,0
0,0,2078,-5,-100,602,-34,12,182,0,0,0,0,0,0,0,0,0,0,0
0,0,2081,4,-97,601,-36,13,196,0,0,0,0,0,0,0,0,0,0,0
0,0,2078,-5,-107,602,-34,10,173,0,0,0,0,0,0,0,0,0,0,0
0,0,2079,4,-107,601,-36,11,182,0,0,0,0,0,0,0,0,0,0,0
0,0,2074,6,-90,604,-35,11,200,0,0,0,0,0,0,0,0,0,0,0
0,0,2072,2,-97,602,-36,11,184,0,0,0,0,0,0,0,0,0,0,0
0,0,2081,2,-95,604,-35,13,200,0,0,0,0,0,0,0,0,0,0,0
0,0,2069,2,-100,601,-34,12,180,0,0,0,0,0,0,0,0,0,0,0
0,0,2075,6,-105,602,-37,12,183,0,0,0,0,0,0,0,0,0,0,0
0,0,2078,14,-103,600,-36,11,194,0,0,0,0,0,0,0,0,0,0,0
0,0,2073,-2,-114,601,-35,14,166,0,0,0,0,0,0,0,0,0,0,0
0,0,2079,6,-91,603,-34,12,205,0,0,0,0,0,0,0,0,0,0,0
0,0,2076,7,-102,604,-34,12,193,0,0,0,0,0,0,0,0,0,0,0
0,0,2078,3,-93,601,-36,12,195,0,0,0,0,0,0,0,0,0,0,0
0,0,2070,7,-92,601,-36,12,192,0,0,0,0,0,0,0,0,0,0,0
0,0,2077,-1,-95,601,-36,12,187,0,0,0,0,0,0,0,0,0,0,0
0,0,2071,7,-93,603,-35,11,194,0,0,0,0,0,0,0,0,0,0,0
0,0,2079,7,-94,602,-34,11,201,0,0,0,0,0,0,0,0,0,0,0
0,0,2077,10,-96,602,-35,11,199,0,0,0,0,0,0,0,0,0,0,0
0,0,2073,6,-99,601,-36,11,186,0,0,0,0,0,0,0,0,0,0,0
0,0,2076,9,-106,601,-36,12,186,0,0,0,0,0,0,0,0,0,0,0
0,0,2072,3,-109,600,-37,12,171,0,0,0,0,0,0,0,0,0,0,0
0,0,2073,11,-98,601,-34,12,195,0,0,0,0,0,0,0,0,0,0,0
0,0,2074,-4,-87,603,-35,12,192,0,0,0,0,0,0,0,0,0,0,0
0,0,2067,7,-97,603,-35,13,188,0,0,0,0,0,0,0,0,0,0,0
0,0,2075,4,-103,602,-35,10,183,0,0,0,0,0,0,0,0,0,0,0
0,0,2076,2,-90,600,-35,10,193,0,0,0,0,0,0,0,0,0,0,0
0,0,2073,13,-101,602,-35,11,193,0,0,0,0,0,0,0,0,0,0,0
0,0,2065,1,-102,603,-35,12,174,0,0,0,0,0,0,0,0,0,0,0
0,0,2072,-4,-97,602,-34,11,179,0,0,0,0,0,0,0,0,0,0,0
0,0,2068,1,-98,603,-36,11,179,0,0,0,0,0,0,0,0,0,0,0
0,0,2073,2,-97,603,-35,13,189,0,0,0,0,0,0,0,0,0,0,0
0,0,2075,3,-95,602,-36,12,191,0,0,0,0,0,0,0,0,0,0,0
0,0,2072,0,-108,602,-36,11,171,0,0,0,0,0,0,0,0,0,0,0
0,0,2075,-1,-107,602,-35,12,175,0,0,0,0,0,0,0,0,0,0,0
0,0,2073,5,-100,603,-36,11,186,0,0,0,0,0,0,0,0,0,0,0
0,0,2075,3,-98,603,-36,11,188,0,0,0,0,0,0,0,0,0,0,0
0,0,2071,-3,-96,603,-35,10,179,0,0,0,0,0,0,0,0,0,0,0
0,0,2080,0,-90,601,-35,11,197,0,0,0,0,0,0,0,0,0,0,0
0,0,2077,8,-95,603,-35,10,198,0,0,0,0,0,0,0,0,0,0,0
0,0,2074,11,-99,602,-36,11,193,0,0,0,0,0,0,0,0,0,0,0
0,0,2074,3,-101,602,-34,12,186,0,0,0,0,0,0,0,0,0,0,0
0,0,2078,6,-95,602,-34,12,199,0,0,0,0,0,0,0,0,0,0,0
0,0,2072,7,-102,602,-34,13,188,0,0,0,0,0,0,0,0,0,0,0
0,0,2081,7,-92,602,-36,11,203,0,0,0,0,0,0,0,0,0,0,0
0,0,2077,-2,-99,603,-35,11,184,0,0,0,0,0,0,0,0,0,0,0
0,0,2070,3,-97,602,-37,11,182,0,0,0,0,0,0,0,0,0,0,0
0,0,2083,6,-98,601,-36,12,198,0,0,0,0,0,0,0,0,0,0,0
0,0,2079,5,-91,603,-35,12,203,0,0,0,0,0,0,0,0,0,0,0
0,0,2080,-2,-111,603,-36,11,174,0,0,0,0,0,0,0,0,0,0,0
0,0,2067,3,-97,601,-37,13,180,0,0,0,0,0,0,0,0,0,0,0
0,0,2075,3,-98,602,-34,14,192,0,0,0,0,0,0,0,0,0,0,0
0,0,2071,8,-99,601,-33,12,190,0,0,0,0,0,0,0,0,0,0,0
0,0,2072,9,-100,601,-34,10,188,0,0,0,0,0,0,0,0,0,0,0
0,0,2083,3,-98,602,-34,12,198,0,0,0,0,0,0,0,0,0,0,0
0,0,2072,4,-112,603,-35,12,174,0,0,0,0,0,0,0,0,0,0,0
0,0,2073,5,-95,601,-35,14,193,0,0,0,0,0,0,0,0,0,0,0
0,0,2073,5,-93,602,-36,12,193,0,0,0,0,0,0,0,0,0,0,0
0,0,2070,8,-106,602,-34,12,182,0,0,0,0,0,0,0,0,0,0,0
0,0,2077,0,-96,602,-36,11,188,0,0,0,0,0,0,0,0,0,0,0
0,0,2078,2,-93,602,-36,12,195,0,0,0,0,0,0,0,0,0,0,0
0,0,2075,2,-98,603,-36,12,188,0,0,0,0,0,0,0,0,0,0,0
0,0,2077,7,-94,603,-34,11,200,0,0,0,0,0,0,0,0,0,0,0
0,0,2075,5,-100,603,-34,10,189,0,0,0,0,0,0,0,0,0,0,0
0,0,2069,2,-104,603,-35,11,176,0,0,0,0,0,0,0,0,0,0,0
0,0,2075,12,-105,601,-35,11,189,0,0,0,0,0,0,0,0,0,0,0
0,0,2073,13,-99,603,-34,11,197,0,0,0,0,0,0,0,0,0,0,0
0,0,2071,9,-100,603,-36,11,188,0,0,0,0,0,0,0,0,0,0,0
0,0,2078,6,-101,601,-34,12,192,0,0,0,0,0,0,0,0,0,0,0
0,0,2068,8,-96,601,-35,11,187,0,0,0,0,0,0,0,0,0,0,0
0,0,2074,-2,-99,602,-35,14,183,0,0,0,0,0,0,0,0,0,0,0
0,0,2076,0,-93,603,-35,13,194,0,0,0,0,0,0,0,0,0,0,0
0,0,2073,8,-98,601,-35,12,191,0,0,0,0,0,0,0,0,0,0,0
0,0,2078,3,-92,602,-34,12,199,0,0,0,0,0,0,0,0,0,0,0
0,0,2075,5,-87,601,-34,12,202,0,0,0,0,0,0,0,0,0,0,0
0,0,2071,9,-90,602,-36,11,197,0,0,0,0,0,0,0,0,0,0,0
0,0,2074,13,-106,602,-35,12,190,0,0,0,0,0,0,0,0,0,0,0
0,0,2077,-3,-102,603,-36,11,179,0,0,0,0,0,0,0,0,0,0,0
0,0,2071,0,-97,601,-35,13,183,0,0,0,0,0,0,0,0,0,0,0
0,0,2077,1,-91,602,-35,12,196,0,0,0,0,0,0,0,0,0,0,0
0,0,2066,-5,-95,602,-35,11,173,0,0,0,0,0,0,0,0,0,0,0
0,0,2073,8,-99,601,-36,11,188,0,0,0,0,0,0,0,0,0,0,0
0,0,2069,5,-107,600,-37,12,172,0,0,0,0,0,0,0,0,0,0,0
0,0,2075,-2,-98,603,-34,11,184,0,0,0,0,0,0,0,0,0,0,0
0,0,2068,4,-94,602,-36,10,184,0,0,0,0,0,0,0,0,0,0,0
0,0,2072,5,-100,601,-34,11,185,0,0,0,0,0,0,0,0,0,0,0
0,0,2078,0,-107,604,-35,12,182,0,0,0,0,0,0,0,0,0,0,0
0,0,2072,7,-107,601,-35,11,179,0,0,0,0,0,0,0,0,0,0,0
0,0,2071,13,-95,603,-35,12,199,0,0,0,0,0,0,0,0,0,0,0
0,0,2067,9,-99,604,-33,13,191,0,0,0,0,0,0,0,0,0,0,0
0,0,2079,2,-96,603,-34,12,196,0,0,0,0,0,0,0,0,0,0,0
0,0,2067,6,-101,603,-35,13,183,0,0,0,0,0,0,0,0,0,0,0
0,0,2079,3,-103,602,-35,11,187,0,0,0,0,0,0,0,0,0,0,0
0,0,2071,8,-102,601,-36,10,182,0,0,0,0,0,0,0,0,0,0,0
0,0,2074,5,-99,603,-35,11,189,0,0,0,0,0,0,0,0,0,0,0
0,0,2079,-1,-95,600,-35,12,189,0,0,0,0,0,0,0,0,0,0,0
0,0,2072,7,-95,602,-36,12,192,0,0,0,0,0,0,0,0,0,0,0
0,0,2078,-2,-99,602,-34,12,186,0,0,0,0,0,0,0,0,0,0,0
0,0,2073,4,-96,602,-37,11,187,0,0,0,0,0,0,0,0,0,0,0
0,0,2080,5,-93,603,-36,10,199,0,0,0,0,0,0,0,0,0,0,0
0,0,2081,10,-92,602,-36,12,207,0,0,0,0,0,0,0,0,0,0,0
0,0,2074,3,-97,601,-35,9,185,0,0,0,0,0,0,0,0,0,0,0
0,0,2074,3,-104,602,-34,11,182,0,0,0,0,0,0,0,0,0,0,0
0,0,2079,-4,-95,602,-35,12,188,0,0,0,0,0,0,0,0,0,0,0
0,0,2079,-8,-95,602,-35,11,183,0,0,0,0,0,0,0,0,0,0,0
0,0,2072,2,-91,602,-34,11,192,0,0,0,0,0,0,0,0,0,0,0
0,0,2074,4,-91,601,-35,11,194,0,0,0,0,0,0,0,0,0,0,0
0,0,2075,4,-109,603,-35,11,179,0,0,0,0,0,0,0,0,0,0,0
0,0,2074,10,-103,603,-34,11,191,0,0,0,0,0,0,0,0,0,0,0
0,0,2076,2,-98,602,-36,12,188,0,0,0,0,0,0,0,0,0,0,0
0,0,2073,8,-95,601,-36,11,192,0,0,0,0,0,0,0,0,0,0,0
0,0,2080,-1,-99,601,-35,13,188,0,0,0,0,0,0,0,0,0,0,0
0,0,2075,3,-101,603,-35,13,188,0,0,0,0,0,0,0,0,0,0,0
0,0,2071,7,-102,602,-35,13,186,0,0,0,0,0,0,0,0,0,0,0
0,0,2074,3,-110,604,-36,12,177,0,0,0,0,0,0,0,0,0,0,0
0,0,2072,3,-88,601,-35,12,195,0,0,0,0,0,0,0,0,0,0,0
0,0,2065,-1,-100,602,-35,13,173,0,0,0,0,0,0,0,0,0,0,0
0,0,2073,10,-91,602,-35,12,201,0,0,0,0,0,0,0,0,0,0,0
0,0,2073,5,-103,601,-35,10,181,0,0,0,0,0,0,0,0,0,0,0
0,0,2072,2,-98,603,-34,14,189,0,0,0,0,0,0,0,0,0,0,0
0,0,2077,0,-103,603,-36,11,182,0,0,0,0,0,0,0,0,0,0,0
0,0,2079,3,-110,602,-35,10,179,0,0,0,0,0,0,0,0,0,0,0
0,0,2079,1,-100,602,-35,13,190,0,0,0,0,0,0,0,0,0,0,0
0,0,2077,0,-99,602,-35,12,187,0,0,0,0,0,0,0,0,0,0,0
0,0,2066,5,-97,601,-35,10,180,0,0,0,0,0,0,0,0,0,0,0
0,0,2077,4,-108,601,-33,10,181,0,0,0,0,0,0,0,0,0,0,0
0,0,2071,6,-105,604,-35,11,182,0,0,0,0,0,0,0,0,0,0,0
0,0,2074,7,-95,603,-35,13,197,0,0,0,0,0,0,0,0,0,0,0
0,0,2073,5,-95,600,-37,12,188,0,0,0,0,0,0,0,0,0,0,0
0,0,2084,6,-102,601,-36,10,193,0,0,0,0,0,0,0,0,0,0,0
0,0,2072,5,-95,603,-36,11,190,0,0,0,0,0,0,0,0,0,0,0
0,0,2077,7,-105,600,-36,12,185,0,0,0,0,0,0,0,0,0,0,0
0,0,2072,6,-101,602,-35,11,185,0,0,0,0,0,0,0,0,0,0,0
0,0,2076,5,-95,602,-37,11,192,0,0,0,0,0,0,0,0,0,0,0
0,0,2080,9,-99,604,-36,12,200,0,0,0,0,0,0,0,0,0,0,0
0,0,2076,3,-94,602,-36,12,193,0,0,0,0,0,0,0,0,0,0,0
0,0,2077,6,-101,602,-38,11,187,0,0,0,0,0,0,0,0,0,0,0
0,0,2071,4,-105,601,-35,11,177,0,0,0,0,0,0,0,0,0,0,0
0,0,2077,8,-105,603,-35,10,188,0,0,0,0,0,0,0,0,0,0,0
0,0,2076,9,-104,600,-35,10,186,0,0,0,0,0,0,0,0,0,0,0
0,0,2080,6,-100,603,-35,12,196,0,0,0,0,0,0,0,0,0,0,0
0,0,2068,9,-112,604,-35,12,176,0,0,0,0,0,0,0,0,0,0,0
0,0,2074,9,-105,603,-37,11,185,0,0,0,0,0,0,0,0,0,0,0
0,0,2074,2,-105,603,-34,12,182,0,0,0,0,0,0,0,0,0,0,0
0,0,2075,5,-106,603,-35,10,182,0,0,0,0,0,0,0,0,0,0,0
0,0,2069,1,-97,602,-36,12,181,0,0,0,0,0,0,0,0,0,0,0
0,0,2072,7,-101,601,-36,11,184,0,0,0,0,0,0,0,0,0,0,0
0,0,2069,2,-99,602,-36,12,180,0,0,0,0,0,0,0,0,0,0,0
0,0,2070,7,-92,602,-35,10,192,0,0,0,0,0,0,0,0,0,0,0
0,0,2076,8,-91,602,-35,12,202,0,0,0,0,0,0,0,0,0,0,0
0,0,2076,2,-101,602,-35,11,185,0,0,0,0,0,0,0,0,0,0,0
0,0,2081,9,-108,602,-36,12,190,0,0,0,0,0,0,0,0,0,0,0
0,0,2072,8,-105,604,-36,11,184,0,0,0,0,0,0,0,0,0,0,0
0,0,2071,1,-104,603,-36,11,176,0,0,0,0,0,0,0,0,0,0,0
0,0,2074,-1,-92,602,-36,11,187,0,0,0,0,0,0,0,0,0,0,0
0,0,2072,5,-85,601,-36,11,198,0,0,0,0,0,0,0,0,0,0,0
0,0,2069,-2,-91,602,-34,13,186,0,0,0,0,0,0,0,0,0,0,0
0,0,2077,-3,-105,602,-36,13,177,0,0,0,0,0,0,0,0,0,0,0
0,0,2071,-3,-104,600,-35,12,170,0,0,0,0,0,0,0,0,0,0,0
0,0,2071,4,-94,602,-35,12,190,0,0,0,0,0,0,0,0,0,0,0
0,0,2070,2,-93,601,-34,11,187,0,0,0,0,0,0,0,0,0,0,0
0,0,2072,9,-100,602,-36,12,189,0,0,0,0,0,0,0,0,0,0,0
0,0,2065,3,-91,602,-35,12,186,0,0,0,0,0,0,0,0,0,0,0
0,0,2068,8,-95,604,-37,13,191,0,0,0,0,0,0,0,0,0,0,0
0,0,2075,2,-95,601,-36,11,188,0,0,0,0,0,0,0,0,0,0,0
0,0,2078,7,-88,600,-34,11,204,0,0,0,0,0,0,0,0,0,0,0
0,0,2074,4,-96,601,-34,13,192,0,0,0,0,0,0,0,0,0,0,0
0,0,2079,3,-97,601,-36,11,191,0,0,0,0,0,0,0,0,0,0,0
0,0,2067,2,-98,602,-35,13,181,0,0,0,0,0,0,0,0,0,0,0
0,0,2075,4,-93,601,-35,14,196,0,0,0,0,0,0,0,0,0,0,0
0,0,2079,3,-94,602,-34,12,198,0,0,0,0,0,0,0,0,0,0,0
0,0,2074,2,-96,601,-35,11,187,0,0,0,0,0,0,0,0,0,0,0
0,0,2070,3,-93,602,-35,11,188,0,0,0,0,0,0,0,0,0,0,0
0,0,2077,2,-101,603,-34,11,188,0,0,0,0,0,0,0,0,0,0,0
0,0,2074,10,-113,602,-34,12,181,0,0,0,0,0,0,0,0,0,0,0
0,0,2070,4,-92,602,-36,11,189,0,0,0,0,0,0,0,0,0,0,0
0,0,2072,11,-107,602,-35,10,183,0,0,0,0,0,0,0,0,0,0,0
0,0,2079,4,-105,602,-36,10,184,0,0,0,0,0,0,0,0,0,0,0
0,0,2072,-2,-96,604,-35,11,183,0,0,0,0,0,0,0,0,0,0,0
0,0,2070,-2,-95,601,-35,11,179,0,0,0,0,0,0,0,0,0,0,0
0,0,2074,1,-108,601,-34,11,175,0,0,0,0,0,0,0,0,0,0,0
0,0,2072,6,-106,602,-34,11,181,0,0,0,0,0,0,0,0,0,0,0
0,0,2077,6,-91,602,-35,12,201,0,0,0,0,0,0,0,0,0,0,0
0,0,2077,3,-105,604,-35,12,186,0,0,0,0,0,0,0,0,0,0,0
0,0,2071,1,-106,603,-34,11,176,0,0,0,0,0,0,0,0,0,0,0
0,0,2071,1,-100,602,-35,11,180,0,0,0,0,0,0,0,0,0,0,0
0,0,2070,-4,-94,603,-34,10,180,0,0,0,0,0,0,0,0,0,0,0
0,0,2074,9,-112,603,-34,11,181,0,0,0,0,0,0,0,0,0,0,0
0,0,2083,6,-99,601,-34,11,198,0,0,0,0,0,0,0,0,0,0,0
0,0,2068,2,-96,603,-36,12,183,0,0,0,0,0,0,0,0,0,0,0
0,0,2072,4,-101,604,-34,11,186,0,0,0,0,0,0,0,0,0,0,0
0,0,2070,5,-111,600,-35,12,171,0,0,0,0,0,0,0,0,0,0,0
0,0,2080,0,-97,602,-35,11,191,0,0,0,0,0,0,0,0,0,0,0
0,0,2074,4,-96,601,-35,11,189,0,0,0,0,0,0,0,0,0,0,0
0,0,2072,8,-99,603,-35,12,191,0,0,0,0,0,0,0,0,0,0,0
0,0,2069,8,-101,602,-36,12,184,0,0,0,0,0,0,0,0,0,0,0
0,0,2071,4,-103,602,-37,11,178,0,0,0,0,0,0,0,0,0,0,0
0,0,2076,-3,-95,602,-36,13,186,0,0,0,0,0,0,0,0,0,0,0
0,0,2082,3,-96,603,-35,12,199,0,0,0,0,0,0,0,0,0,0,0
0,0,2068,5,-102,602,-34,11,180,0,0,0,0,0,0,0,0,0,0,0
0,0,2077,3,-103,602,-36,11,184,0,0,0,0,0,0,0,0,0,0,0
0,0,2069,3,-98,603,-35,12,184,0,0,0,0,0,0,0,0,0,0,0
0,0,2077,6,-102,603,-36,11,189,0,0,0,0,0,0,0,0,0,0,0
0,0,2074,2,-98,601,-35,11,185,0,0,0,0,0,0,0,0,0,0,0
0,0,2072,5,-100,602,-34,11,186,0,0,0,0,0,0,0,0,0,0,0
0,0,2071,10,-96,603,-34,9,193,0,0,0,0,0,0,0,0,0,0,0
0,0,2070,2,-104,602,-35,10,175,0,0,0,0,0,0,0,0,0,0,0
0,0,2079,-1,-99,602,-36,12,186,0,0,0,0,0,0,0,0,0,0,0
0,0,2068,5,-98,601,-35,11,182,0,0,0,0,0,0,0,0,0,0,0
0,0,2070,10,-86,602,-35,14,205,0,0,0,0,0,0,0,0,0,0,0
0,0,2068,5,-100,602,-34,12,183,0,0,0,0,0,0,0,0,0,0,0
0,0,2079,6,-103,604,-35,12,193,0,0,0,0,0,0,0,0,0,0,0
0,0,2077,3,-98,601,-34,12,191,0,0,0,0,0,0,0,0,0,0,0
0,0,2080,1,-106,603,-35,11,184,0,0,0,0,0,0,0,0,0,0,0
0,0,2077,-3,-95,603,-35,13,189,0,0,0,0,0,0,0,0,0,0,0
0,0,2079,8,-101,600,-37,10,189,0,0,0,0,0,0,0,0,0,0,0
0,0,2077,5,-106,601,-36,10,181,0,0,0,0,0,0,0,0,0,0,0
0,0,2077,1,-103,601,-36,11,181,0,0,0,0,0,0,0,0,0,0,0
0,0,2070,4,-100,603,-35,13,185,0,0,0,0,0,0,0,0,0,0,0
0,0,2074,8,-98,602,-35,11,192,0,0,0,0,0,0,0,0,0,0,0
0,0,2073,6,-99,602,-33,11,190,0,0,0,0,0,0,0,0,0,0,0
0,0,2069,9,-93,603,-34,11,195,0,0,0,0,0,0,0,0,0,0,0
0,0,2071,6,-97,600,-34,12,188,0,0,0,0,0,0,0,0,0,0,0
0,0,2070,3,-97,601,-35,12,184,0,0,0,0,0,0,0,0,0,0,0
0,0,2077,2,-107,602,-34,12,182,0,0,0,0,0,0,0,0,0,0,0
0,0,2069,11,-105,601,-36,11,181,0,0,0,0,0,0,0,0,0,0,0
0,0,2073,6,-102,602,-36,12,185,0,0,0,0,0,0,0,0,0,0,0
0,0,2075,7,-97,602,-34,12,195,0,0,0,0,0,0,0,0,0,0,0
0,0,2074,8,-101,602,-34,10,189,0,0,0,0,0,0,0,0,0,0,0
0,0,2066,6,-95,601,-35,10,183,0,0,0,0,0,0,0,0,0,0,0
0,0,2079,-3,-109,604,-36,12,176,0,0,0,0,0,0,0,0,0,0,0
0,0,2078,-3,-108,603,-36,9,172,0,0,0,0,0,0,0,0,0,0,0
0,0,2074,4,-100,601,-35,11,185,0,0,0,0,0,0,0,0,0,0,0
0,0,2066,-3,-106,602,-35,11,164,0,0,0,0,0,0,0,0,0,0,0
0,0,2075,-2,-108,603,-35,10,172,0,0,0,0,0,0,0,0,0,0,0
0,0,2078,4,-108,602,-35,12,183,0,0,0,0,0,0,0,0,0,0,0
0,0,2078,0,-103,603,-35,12,185,0,0,0,0,0,0,0,0,0,0,0
0,0,2071,2,-102,602,-36,13,180,0,0,0,0,0,0,0,0,0,0,0
0,0,2076,8,-95,601,-37,10,193,0,0,0,0,0,0,0,0,0,0,0
0,0,2068,-2,-90,601,-35,12,183,0,0,0,0,0,0,0,0,0,0,0
0,0,2068,-1,-99,603,-37,12,175,0,0,0,0,0,0,0,0,0,0,0
0,0,2080,8,-104,601,-36,12,191,0,0,0,0,0,0,0,0,0,0,0
0,0,2076,1,-103,600,-34,11,181,0,0,0,0,0,0,0,0,0,0,0
0,0,2081,1,-96,602,-36,12,194,0,0,0,0,0,0,0,0,0,0,0
0,0,2076,5,-97,600,-34,12,192,0,0,0,0,0,0,0,0,0,0,0
0,0,2071,6,-90,601,-36,12,194,0,0,0,0,0,0,0,0,0,0,0
0,0,2074,1,-104,600,-35,11,177,0,0,0,0,0,0,0,0,0,0,0
0,0,2081,1,-102,600,-35,11,186,0,0,0,0,0,0,0,0,0,0,0
0,0,2068,0,-93,602,-35,13,185,0,0,0,0,0,0,0,0,0,0,0
0,0,2072,1,-104,605,-36,12,180,0,0,0,0,0,0,0,0,0,0,0
0,0,2072,8,-100,603,-35,11,189,0,0,0,0,0,0,0,0,0,0,0
0,0,2075,0,-92,603,-35,12,193,0,0,0,0,0,0,0,0,0,0,0
0,0,2076,8,-98,602,-35,12,195,0,0,0,0,0,0,0,0,0,0,0
0,0,2076,9,-98,601,-35,12,195,0,0,0,0,0,0,0,0,0,0,0
0,0,2071,2,-107,601,-35,12,174,0,0,0,0,0,0,0,0,0,0,0
0,0,2079,2,-101,601,-37,11,185,0,0,0,0,0,0,0,0,0,0,0
0,0,2075,4,-109,602,-34,12,180,0,0,0,0,0,0,0,0,0,0,0
0,0,2070,0,-87,602,-36,11,190,0,0,0,0,0,0,0,0,0,0,0
0,0,2080,7,-103,604,-36,12,194,0,0,0,0,0,0,0,0,0,0,0
0,0,2080,11,-102,603,-35,12,199,0,0,0,0,0,0,0,0,0,0,0
0,0,2069,-1,-99,602,-35,14,179,0,0,0,0,0,0,0,0,0,0,0
0,0,2073,-2,-101,602,-35,10,176,0,0,0,0,0,0,0,0,0,0,0
0,0,2069,1,-96,602,-33,12,185,0,0,0,0,0,0,0,0,0,0,0
0,0,2066,9,-91,600,-34,10,190,0,0,0,0,0,0,0,0,0,0,0
0,0,2072,2,-97,601,-35,11,184,0,0,0,0,0,0,0,0,0,0,0
0,0,2078,-1,-104,603,-36,12,181,0,0,0,0,0,0,0,0,0,0,0
0,0,2072,2,-104,602,-36,10,176,0,0,0,0,0,0,0,0,0,0,0
0,0,2078,-1,-97,603,-35,11,188,0,0,0,0,0,0,0,0,0,0,0
0,0,2071,8,-108,602,-36,11,178,0,0,0,0,0,0,0,0,0,0,0
0,0,2071,10,-107,603,-36,12,183,0,0,0,0,0,0,0,0,0,0,0
0,0,2073,7,-96,601,-34,12,193,0,0,0,0,0,0,0,0,0,0,0
0,0,2080,12,-103,601,-34,12,198,0,0,0,0,0,0,0,0,0,0,0
0,0,2078,0,-100,601,-36,12,185,0,0,0,0,0,0,0,0,0,0,0
0,0,2077,-1,-101,602,-34,11,183,0,0,0,0,0,0,0,0,0,0,0
0,0,2068,3,-99,602,-35,12,181,0,0,0,0,0,0,0,0,0,0,0
0,0,2068,-3,-100,603,-33,11,175,0,0,0,0,0,0,0,0,0,0,0
0,0,2071,3,-109,602,-36,10,171,0,0,0,0,0,0,0,0,0,0,0
0,0,2079,3,-105,603,-36,10,184,0,0,0,0,0,0,0,0,0,0,0
0,0,2080,3,-102,602,-35,11,189,0,0,0,0,0,0,0,0,0,0,0
0,0,2075,2,-91,601,-34,11,194,0,0,0,0,0,0,0,0,0,0,0
0,0,2075,1,-101,602,-36,13,184,0,0,0,0,0,0,0,0,0,0,0
0,0,2077,1,-96,601,-34,12,191,0,0,0,0,0,0,0,0,0,0,0
0,0,2076,8,-102,600,-36,11,187,0,0,0,0,0,0,0,0,0,0,0
0,0,2080,0,-97,604,-36,11,192,0,0,0,0,0,0,0,0,0,0,0
0,0,2067,3,-88,603,-35,13,193,0,0,0,0,0,0,0,0,0,0,0
0,0,2071,5,-92,601,-35,11,191,0,0,0,0,0,0,0,0,0,0,0
0,0,2078,-2,-106,601,-36,11,175,0,0,0,0,0,0,0,0,0,0,0
0,0,2075,-1,-95,601,-36,12,185,0,0,0,0,0,0,0,0,0,0,0
0,0,2073,7,-107,601,-35,12,181,0,0,0,0,0,0,0,0,0,0,0
0,0,2080,2,-104,601,-35,12,186,0,0,0,0,0,0,0,0,0,0,0
0,0,2072,4,-97,600,-36,10,183,0,0,0,0,0,0,0,0,0,0,0
0,0,2074,4,-104,603,-35,11,183,0,0,0,0,0,0,0,0,0,0,0
0,0,2069,8,-102,601,-35,10,181,0,0,0,0,0,0,0,0,0,0,0
0,0,2080,4,-99,601,-36,11,191,0,0,0,0,0,0,0,0,0,0,0
0,0,2070,9,-104,601,-35,13,184,0,0,0,0,0,0,0,0,0,0,0
0,0,2078,3,-97,601,-35,13,193,0,0,0,0,0,0,0,0,0,0,0
0,0,2075,3,-101,602,-35,12,186,0,0,0,0,0,0,0,0,0,0,0
0,0,2077,3,-99,601,-35,13,190,0,0,0,0,0,0,0,0,0,0,0
0,0,2079,11,-97,603,-36,11,201,0,0,0,0,0,0,0,0,0,0,0
0,0,2076,0,-97,603,-35,10,187,0,0,0,0,0,0,0,0,0,0,0
0,0,2075,-1,-91,603,-34,11,192,0,0,0,0,0,0,0,0,0,0,0
0,0,2075,2,-91,603,-34,11,196,0,0,0,0,0,0,0,0,0,0,0
0,0,2076,7,-95,603,-34,10,197,0,0,0,0,0,0,0,0,0,0,0
0,0,2073,1,-88,603,-34,12,197,0,0,0,0,0,0,0,0,0,0,0
0,0,2080,6,-95,601,-34,11,199,0,0,0,0,0,0,0,0,0,0,0
0,0,2073,2,-91,602,-35,11,192,0,0,0,0,0,0,0,0,0,0,0
0,0,2079,0,-94,602,-35,10,192,0,0,0,0,0,0,0,0,0,0,0
0,0,2076,0,-90,601,-36,12,193,0,0,0,0,0,0,0,0,0,0,0
0,0,2079,7,-84,604,-34,13,215,0,0,0,0,0,0,0,0,0,0,0
0,0,2077,2,-95,603,-36,13,194,0,0,0,0,0,0,0,0,0,0,0
0,0,2074,4,-90,601,-36,10,193,0,0,0,0,0,0,0,0,0,0,0
0,0,2073,6,-104,603,-33,12,187,0,0,0,0,0,0,0,0,0,0,0
0,0,2070,4,-93,604,-35,12,192,0,0,0,0,0,0,0,0,0,0,0
0,0,2072,8,-94,599,-35,12,192,0,0,0,0,0,0,0,0,0,0,0
0,0,2077,12,-92,602,-35,11,205,0,0,0,0,0,0,0,0,0,0,0
0,0,2078,0,-97,602,-35,11,189,0,0,0,0,0,0,0,0,0,0,0
0,0,2076,2,-102,602,-34,12,186,0,0,0,0,0,0,0,0,0,0,0
0,0,2075,0,-88,602,-34,13,198,0,0,0,0,0,0,0,0,0,0,0
0,0,2073,4,-99,601,-35,11,185,0,0,0,0,0,0,0,0,0,0,0
0,0,2070,0,-87,602,-34,12,193,0,0,0,0,0,0,0,0,0,0,0
0,0,2072,-2,-94,601,-36,11,181,0,0,0,0,0,0,0,0,0,0,0
0,0,2071,1,-103,602,-35,12,178,0,0,0,0,0,0,0,0,0,0,0
0,0,2073,6,-95,602,-34,11,193,0,0,0,0,0,0,0,0,0,0,0
0,0,2075,9,-97,603,-36,12,196,0,0,0,0,0,0,0,0,0,0,0
0,0,2077,4,-94,602,-36,12,195,0,0,0,0,0,0,0,0,0,0,0
0,0,2075,7,-88,600,-36,13,201,0,0,0,0,0,0,0,0,0,0,0
0,0,2073,-2,-102,603,-37,13,177,0,0,0,0,0,0,0,0,0,0,0
0,0,2082,0,-80,601,-36,12,209,0,0,0,0,0,0,0,0,0,0,0
0,0,2083,0,-98,601,-35,11,192,0,0,0,0,0,0,0,0,0,0,0
0,0,2071,7,-101,604,-33,13,191,0,0,0,0,0,0,0,0,0,0,0
0,0,2072,4,-96,603,-35,12,190,0,0,0,0,0,0,0,0,0,0,0
0,0,2078,6,-99,602,-35,12,194,0,0,0,0,0,0,0,0,0,0,0
0,0,2072,-4,-94,601,-35,12,181,0,0,0,0,0,0,0,0,0,0,0
0,0,2076,7,-95,600,-34,13,197,0,0,0,0,0,0,0,0,0,0,0
0,0,2069,9,-100,603,-35,11,187,0,0,0,0,0,0,0,0,0,0,0
0,0,2071,3,-90,603,-34,11,194,0,0,0,0,0,0,0,0,0,0,0
0,0,2085,0,-95,603,-34,12,201,0,0,0,0,0,0,0,0,0,0,0
0,0,2077,5,-96,601,-36,12,193,0,0,0,0,0,0,0,0,0,0,0
0,0,2073,4,-104,601,-34,11,181,0,0,0,0,0,0,0,0,0,0,0
0,0,2072,2,-100,601,-35,11,181,0,0,0,0,0,0,0,0,0,0,0
0,0,2066,-4,-103,602,-35,11,166,0,0,0,0,0,0,0,0,0,0,0
0,0,2069,5,-94,601,-35,12,188,0,0,0,0,0,0,0,0,0,0,0
0,0,2072,-2,-96,601,-36,11,179,0,0,0,0,0,0,0,0,0,0,0
0,0,2079,0,-102,603,-36,11,185,0,0,0,0,0,0,0,0,0,0,0
0,0,2074,4,-104,601,-35,11,181,0,0,0,0,0,0,0,0,0,0,0
0,0,2075,5,-101,603,-35,11,188,0,0,0,0,0,0,0,0,0,0,0
0,0,2072,3,-100,601,-35,10,181,0,0,0,0,0,0,0,0,0,0,0
0,0,2071,3,-102,600,-35,12,179,0,0,0,0,0,0,0,0,0,0,0
0,0,2074,1,-89,601,-35,13,195,0,0,0,0,0,0,0,0,0,0,0
0,0,2080,1,-99,603,-35,12,192,0,0,0,0,0,0,0,0,0,0,0
0,0,2071,3,-100,604,-36,12,184,0,0,0,0,0,0,0,0,0,0,0
0,0,2077,1,-102,603,-34,11,186,0,0,0,0,0,0,0,0,0,0,0
0,0,2074,2,-97,602,-34,11,188,0,0,0,0,0,0,0,0,0,0,0
0,0,2071,9,-106,601,-35,12,182,0,0,0,0,0,0,0,0,0,0,0
0,0,2076,1,-99,602,-35,11,186,0,0,0,0,0,0,0,0,0,0,0
0,0,2074,5,-105,602,-35,11,182,0,0,0,0,0,0,0,0,0,0,0
0,0,2069,-3,-92,602,-34,12,183,0,0,0,0,0,0,0,0,0,0,0
0,0,2078,8,-98,602,-35,9,194,0,0,0,0,0,0,0,0,0,0,0
0,0,2069,-3,-94,601,-37,11,176,0,0,0,0,0,0,0,0,0,0,0
0,0,2074,12,-98,602,-35,11,196,0,0,0,0,0,0,0,0,0,0,0
0,0,2075,4,-101,602,-35,12,187,0,0,0,0,0,0,0,0,0,0,0
0,0,2077,-2,-98,602,-36,13,185,0,0,0,0,0,0,0,0,0,0,0
0,0,2080,8,-108,602,-37,14,189,0,0,0,0,0,0,0,0,0,0,0
0,0,2071,1,-98,601,-36,12,181,0,0,0,0,0,0,0,0,0,0,0
0,0,2075,4,-89,603,-36,12,199,0,0,0,0,0,0,0,0,0,0,0
0,0,2080,3,-102,602,-35,10,188,0,0,0,0,0,0,0,0,0,0,0
0,0,2076,-2,-87,602,-37,11,192,0,0,0,0,0,0,0,0,0,0,0
0,0,2078,5,-91,602,-35,13,202,0,0,0,0,0,0,0,0,0,0,0
0,0,2076,10,-102,600,-34,14,194,0,0,0,0,0,0,0,0,0,0,0
0,0,2071,2,-103,602,-36,12,178,0,0,0,0,0,0,0,0,0,0,0
0,0,2068,6,-105,600,-35,12,176,0,0,0,0,0,0,0,0,0,0,0
0,0,2079,7,-103,600,-35,12,190,0,0,0,0,0,0,0,0,0,0,0
0,0,2077,4,-105,601,-35,11,183,0,0,0,0,0,0,0,0,0,0,0
0,0,2079,2,-90,601,-36,11,197,0,0,0,0,0,0,0,0,0,0,0
0,0,2079,2,-103,603,-36,10,185,0,0,0,0,0,0,0,0,0,0,0
0,0,2079,-1,-106,600,-34,13,180,0,0,0,0,0,0,0,0,0,0,0
0,0,2077,2,-93,601,-36,11,192,0,0,0,0,0,0,0,0,0,0,0
0,0,2071,12,-93,602,-35,11,198,0,0,0,0,0,0,0,0,0,0,0
0,0,2071,3,-96,603,-36,11,186,0,0,0,0,0,0,0,0,0,0,0
0,0,2072,5,-105,602,-33,13,184,0,0,0,0,0,0,0,0,0,0,0
0,0,2068,-1,-104,602,-37,12,169,0,0,0,0,0,0,0,0,0,0,0
0,0,2080,11,-105,603,-36,10,193,0,0,0,0,0,0,0,0,0,0,0
0,0,2075,8,-96,602,-35,11,195,0,0,0,0,0,0,0,0,0,0,0
0,0,2078,7,-96,601,-36,11,195,0,0,0,0,0,0,0,0,0,0,0
0,0,2080,7,-87,602,-35,13,210,0,0,0,0,0,0,0,0,0,0,0
0,0,2083,4,-108,601,-35,12,187,0,0,0,0,0,0,0,0,0,0,0
0,0,2075,-6,-102,603,-34,11,176,0,0,0,0,0,0,0,0,0,0,0
0,0,2081,3,-98,602,-36,11,193,0,0,0,0,0,0,0,0,0,0,0
0,0,2081,13,-93,602,-35,11,209,0,0,0,0,0,0,0,0,0,0,0
0,0,2067,11,-95,603,-35,11,192,0,0,0,0,0,0,0,0,0,0,0
0,0,2070,3,-94,603,-35,12,189,0,0,0,0,0,0,0,0,0,0,0
0,0,2078,2,-89,603,-34,10,200,0,0,0,0,0,0,0,0,0,0,0
0,0,2082,3,-93,603,-34,11,202,0,0,0,0,0,0,0,0,0,0,0
0,0,2073,-1,-100,600,-35,12,178,0,0,0,0,0,0,0,0,0,0,0
0,0,2076,5,-103,602,-36,13,187,0,0,0,0,0,0,0,0,0,0,0
0,0,2075,5,-91,602,-35,12,198,0,0,0,0,0,0,0,0,0,0,0
0,0,2073,4,-102,602,-35,11,183,0,0,0,0,0,0,0,0,0,0,0
0,0,2080,7,-101,601,-34,13,196,0,0,0,0,0,0,0,0,0,0,0
0,0,2077,4,-99,601,-34,12,191,0,0,0,0,0,0,0,0,0,0,0
0,0,2080,6,-97,603,-36,11,197,0,0,0,0,0,0,0,0,0,0,0
0,0,2072,3,-93,603,-37,11,189,0,0,0,0,0,0,0,0,0,0,0
0,0,2068,5,-111,601,-36,13,170,0,0,0,0,0,0,0,0,0,0,0
0,0,2074,2,-101,601,-36,13,183,0,0,0,0,0,0,0,0,0,0,0
0,0,2073,-1,-115,601,-33,12,166,0,0,0,0,0,0,0,0,0,0,0
0,0,2075,3,-95,602,-35,11,191,0,0,0,0,0,0,0,0,0,0,0
0,0,2081,9,-97,601,-35,12,201,0,0,0,0,0,0,0,0,0,0,0
0,0,2075,4,-93,602,-35,11,194,0,0,0,0,0,0,0,0,0,0,0
0,0,2076,4,-96,602,-34,12,194,0,0,0,0,0,0,0,0,0,0,0
0,0,2073,-1,-95,602,-35,11,184,0,0,0,0,0,0,0,0,0,0,0
0,0,2075,5,-99,601,-34,12,190,0,0,0,0,0,0,0,0,0,0,0
0,0,2068,0,-89,603,-35,13,190,0,0,0,0,0,0,0,0,0,0,0
0,0,2072,2,-99,601,-35,11,182,0,0,0,0,0,0,0,0,0,0,0
0,0,2074,2,-97,603,-35,12,189,0,0,0,0,0,0,0,0,0,0,0
0,0,2074,3,-93,602,-34,13,195,0,0,0,0,0,0,0,0,0,0,0
0,0,2078,3,-97,601,-34,12,193,0,0,0,0,0,0,0,0,0,0,0
0,0,2076,5,-96,602,-36,12,193,0,0,0,0,0,0,0,0,0,0,0
0,0,2077,-3,-100,602,-35,12,182,0,0,0,0,0,0,0,0,0,0,0
0,0,2077,3,-96,602,-36,11,191,0,0,0,0,0,0,0,0,0,0,0
0,0,2076,4,-104,601,-33,10,184,0,0,0,0,0,0,0,0,0,0,0
0,0,2074,5,-94,604,-35,13,197,0,0,0,0,0,0,0,0,0,0,0
0,0,2068,2,-99,602,-37,13,179,0,0,0,0,0,0,0,0,0,0,0
0,0,2068,-2,-105,603,-35,10,168,0,0,0,0,0,0,0,0,0,0,0
0,0,2074,4,-88,601,-35,12,198,0,0,0,0,0,0,0,0,0,0,0
0,0,2073,8,-105,601,-35,13,185,0,0,0,0,0,0,0,0,0,0,0
0,0,2074,0,-88,602,-36,11,193,0,0,0,0,0,0,0,0,0,0,0
0,0,2079,2,-101,601,-34,12,189,0,0,0,0,0,0,0,0,0,0,0
0,0,2070,2,-91,601,-36,13,189,0,0,0,0,0,0,0,0,0,0,0
0,0,2071,5,-101,601,-34,14,186,0,0,0,0,0,0,0,0,0,0,0
0,0,2078,-5,-93,601,-35,11,186,0,0,0,0,0,0,0,0,0,0,0
0,0,2070,0,-92,602,-35,11,186,0,0,0,0,0,0,0,0,0,0,0
0,0,2072,-3,-81,601,-36,11,193,0,0,0,0,0,0,0,0,0,0,0
0,0,2074,-2,-99,603,-35,11,181,0,0,0,0,0,0,0,0,0,0,0
0,0,2073,5,-101,601,-34,11,185,0,0,0,0,0,0,0,0,0,0,0
0,0,2076,7,-106,601,-33,13,188,0,0,0,0,0,0,0,0,0,0,0
0,0,2081,2,-103,603,-35,12,190,0,0,0,0,0,0,0,0,0,0,0
0,0,2079,2,-113,604,-37,13,178,0,0,0,0,0,0,0,0,0,0,0
0,0,2072,10,-90,602,-36,12,200,0,0,0,0,0,0,0,0,0,0,0
0,0,2071,4,-96,601,-34,13,189,0,0,0,0,0,0,0,0,0,0,0
0,0,2074,2,-96,601,-35,14,190,0,0,0,0,0,0,0,0,0,0,0
0,0,2074,2,-91,603,-36,12,194,0,0,0,0,0,0,0,0,0,0,0
0,0,2074,1,-98,602,-36,11,184,0,0,0,0,0,0,0,0,0,0,0
0,0,2072,8,-98,602,-35,11,190,0,0,0,0,0,0,0,0,0,0,0
0,0,2070,8,-103,602,-35,10,182,0,0,0,0,0,0,0,0,0,0,0
0,0,2071,19,-102,603,-36,11,196,0,0,0,0,0,0,0,0,0,0,0
0,0,2072,2,-90,602,-35,10,191,0,0,0,0,0,0,0,0,0,0,0
0,0,2071,14,-109,602,-34,10,184,0,0,0,0,0,0,0,0,0,0,0
0,0,2081,-2,-102,604,-36,13,187,0,0,0,0,0,0,0,0,0,0,0
0,0,2073,-2,-96,602,-36,12,182,0,0,0,0,0,0,0,0,0,0,0
0,0,2068,7,-94,603,-34,14,194,0,0,0,0,0,0,0,0,0,0,0
0,0,2074,-2,-88,604,-34,13,196,0,0,0,0,0,0,0,0,0,0,0
0,0,2077,10,-101,601,-37,12,192,0,0,0,0,0,0,0,0,0,0,0
0,0,2073,5,-99,602,-35,11,187,0,0,0,0,0,0,0,0,0,0,0
0,0,2079,-6,-110,603,-36,11,170,0,0,0,0,0,0,0,0,0,0,0
0,0,2078,9,-100,604,-36,11,196,0,0,0,0,0,0,0,0,0,0,0
0,0,2070,1,-102,601,-34,14,180,0,0,0,0,0,0,0,0,0,0,0
0,0,2068,-3,-111,603,-36,10,160,0,0,0,0,0,0,0,0,0,0,0
0,0,2077,-1,-103,602,-35,12,181,0,0,0,0,0,0,0,0,0,0,0
0,0,2078,9,-96,601,-35,11,198,0,0,0,0,0,0,0,0,0,0,0
0,0,2069,2,-100,604,-35,10,180,0,0,0,0,0,0,0,0,0,0,0
0,0,2074,4,-95,601,-33,13,194,0,0,0,0,0,0,0,0,0,0,0
0,0,2065,0,-110,601,-34,11,163,0,0,0,0,0,0,0,0,0,0,0
0,0,2074,-1,-96,603,-34,11,186,0,0,0,0,0,0,0,0,0,0,0
0,0,2068,5,-93,602,-35,10,187,0,0,0,0,0,0,0,0,0,0,0
0,0,2071,-5,-105,602,-34,11,169,0,0,0,0,0,0,0,0,0,0,0
0,0,2073,1,-96,603,-35,11,187,0,0,0,0,0,0,0,0,0,0,0
0,0,2071,-3,-98,603,-36,11,177,0,0,0,0,0,0,0,0,0,0,0
0,0,2075,6,-110,602,-35,11,179,0,0,0,0,0,0,0,0,0,0,0
0,0,2077,4,-111,602,-35,12,179,0,0,0,0,0,0,0,0,0,0,0
0,0,2067,13,-110,602,-35,13,180,0,0,0,0,0,0,0,0,0,0,0
0,0,2072,12,-93,604,-34,12,203,0,0,0,0,0,0,0,0,0,0,0
0,0,2074,6,-93,601,-36,11,193,0,0,0,0,0,0,0,0,0,0,0
0,0,2078,5,-106,603,-36,11,185,0,0,0,0,0,0,0,0,0,0,0
0,0,2082,-2,-101,602,-37,11,184,0,0,0,0,0,0,0,0,0,0,0
0,0,2077,4,-103,603,-35,11,187,0,0,0,0,0,0,0,0,0,0,0
0,0,2077,8,-97,601,-35,12,196,0,0,0,0,0,0,0,0,0,0,0
0,0,2076,-4,-116,601,-33,11,164,0,0,0,0,0,0,0,0,0,0,0
0,0,2080,-2,-99,600,-35,13,186,0,0,0,0,0,0,0,0,0,0,0
0,0,2079,2,-97,602,-35,13,194,0,0,0,0,0,0,0,0,0,0,0
0,0,2070,0,-94,602,-35,12,185,0,0,0,0,0,0,0,0,0,0,0
0,0,2075,6,-107,602,-36,11,181,0,0,0,0,0,0,0,0,0,0,0
0,0,2077,1,-98,602,-36,10,186,0,0,0,0,0,0,0,0,0,0,0
0,0,2080,-2,-95,603,-35,11,191,0,0,0,0,0,0,0,0,0,0,0
0,0,2076,-1,-100,604,-36,13,185,0,0,0,0,0,0,0,0,0,0,0
0,0,2075,5,-112,601,-36,10,173,0,0,0,0,0,0,0,0,0,0,0
0,0,2075,0,-99,601,-36,11,182,0,0,0,0,0,0,0,0,0,0,0
0,0,2081,6,-99,601,-35,12,196,0,0,0,0,0,0,0,0,0,0,0
0,0,2072,1,-106,601,-36,11,173,0,0,0,0,0,0,0,0,0,0,0
0,0,2077,3,-98,603,-34,11,192,0,0,0,0,0,0,0,0,0,0,0
0,0,2073,-1,-103,602,-36,12,176,0,0,0,0,0,0,0,0,0,0,0
0,0,2078,-4,-100,601,-34,14,184,0,0,0,0,0,0,0,0,0,0,0
0,0,2070,-1,-102,600,-34,12,174,0,0,0,0,0,0,0,0,0,0,0
0,0,2075,11,-104,602,-33,13,194,0,0,0,0,0,0,0,0,0,0,0
0,0,2076,12,-101,601,-34,11,195,0,0,0,0,0,0,0,0,0,0,0
0,0,2079,6,-94,603,-35,12,201,0,0,0,0,0,0,0,0,0,0,0
0,0,2073,1,-87,601,-34,11,195,0,0,0,0,0,0,0,0,0,0,0
0,0,2081,4,-94,600,-36,10,195,0,0,0,0,0,0,0,0,0,0,0
0,0,2083,3,-97,602,-35,12,198,0,0,0,0,0,0,0,0,0,0,0
0,0,2076,6,-103,603,-36,11,187,0,0,0,0,0,0,0,0,0,0,0
0,0,2074,7,-99,602,-36,10,188,0,0,0,0,0,0,0,0,0,0,0
0,0,2072,4,-100,602,-36,11,183,0,0,0,0,0,0,0,0,0,0,0
0,0,2078,3,-109,603,-35,11,181,0,0,0,0,0,0,0,0,0,0,0
0,0,2073,10,-96,602,-35,12,196,0,0,0,0,0,0,0,0,0,0,0
0,0,2079,6,-101,602,-35,12,193,0,0,0,0,0,0,0,0,0,0,0
0,0,2071,6,-99,600,-35,12,185,0,0,0,0,0,0,0,0,0,0,0
0,0,2070,3,-106,602,-36,13,176,0,0,0,0,0,0,0,0,0,0,0
0,0,2079,6,-102,603,-33,13,196,0,0,0,0,0,0,0,0,0,0,0
0,0,2076,4,-111,601,-35,11,176,0,0,0,0,0,0,0,0,0,0,0
0,0,2075,12,-89,602,-36,11,205,0,0,0,0,0,0,0,0,0,0,0
0,0,2079,5,-99,601,-35,11,192,0,0,0,0,0,0,0,0,0,0,0
0,0,2077,2,-94,602,-37,11,191,0,0,0,0,0,0,0,0,0,0,0
0,0,2074,-1,-89,603,-36,10,190,0,0,0,0,0,0,0,0,0,0,0
0,0,2074,6,-94,601,-35,11,193,0,0,0,0,0,0,0,0,0,0,0
0,0,2083,9,-96,601,-34,10,203,0,0,0,0,0,0,0,0,0,0,0
0,0,2069,8,-98,602,-35,12,188,0,0,0,0,0,0,0,0,0,0,0
0,0,2068,-2,-95,602,-35,11,178,0,0,0,0,0,0,0,0,0,0,0
0,0,2072,0,-105,603,-35,13,178,0,0,0,0,0,0,0,0,0,0,0
0,0,2068,6,-108,603,-36,13,176,0,0,0,0,0,0,0,0,0,0,0
0,0,2072,4,-99,601,-34,12,186,0,0,0,0,0,0,0,0,0,0,0
0,0,2079,8,-104,602,-35,13,193,0,0,0,0,0,0,0,0,0,0,0
0,0,2079,10,-99,602,-36,12,198,0,0,0,0,0,0,0,0,0,0,0
0,0,2078,-4,-104,603,-37,12,177,0,0,0,0,0,0,0,0,0,0,0
0,0,2074,0,-108,602,-35,12,175,0,0,0,0,0,0,0,0,0,0,0
0,0,2076,2,-100,602,-34,11,187,0,0,0,0,0,0,0,0,0,0,0
0,0,2071,4,-102,602,-34,11,182,0,0,0,0,0,0,0,0,0,0,0
0,0,2075,-9,-100,603,-35,11,174,0,0,0,0,0,0,0,0,0,0,0
0,0,2076,5,-96,603,-34,10,194,0,0,0,0,0,0,0,0,0,0,0
0,0,2076,11,-98,601,-36,10,194,0,0,0,0,0,0,0,0,0,0,0
0,0,2069,0,-93,602,-35,14,187,0,0,0,0,0,0,0,0,0,0,0
0,0,2069,5,-90,602,-37,12,191,0,0,0,0,0,0,0,0,0,0,0
0,0,2073,5,-94,601,-36,11,190,0,0,0,0,0,0,0,0,0,0,0
0,0,2077,5,-97,603,-36,13,195,0,0,0,0,0,0,0,0,0,0,0
0,0,2078,9,-107,602,-37,11,186,0,0,0,0,0,0,0,0,0,0,0
0,0,2069,3,-106,603,-35,11,175,0,0,0,0,0,0,0,0,0,0,0
0,0,2075,6,-110,602,-34,11,180,0,0,0,0,0,0,0,0,0,0,0
0,0,2080,-2,-111,601,-35,11,173,0,0,0,0,0,0,0,0,0,0,0
0,0,2076,10,-100,602,-34,11,195,0,0,0,0,0,0,0,0,0,0,0
0,0,2077,7,-92,602,-35,11,200,0,0,0,0,0,0,0,0,0,0,0
0,0,2067,5,-97,601,-36,12,182,0,0,0,0,0,0,0,0,0,0,0
0,0,2073,3,-98,602,-35,11,186,0,0,0,0,0,0,0,0,0,0,0
0,0,2080,4,-95,605,-35,13,202,0,0,0,0,0,0,0,0,0,0,0
0,0,2075,3,-103,603,-34,12,186,0,0,0,0,0,0,0,0,0,0,0
0,0,2072,-2,-93,602,-33,12,187,0,0,0,0,0,0,0,0,0,0,0
0,0,2075,8,-98,604,-35,12,196,0,0,0,0,0,0,0,0,0,0,0
0,0,2074,2,-98,603,-35,13,189,0,0,0,0,0,0,0,0,0,0,0
0,0,2067,0,-108,602,-36,12,167,0,0,0,0,0,0,0,0,0,0,0
0,0,2072,8,-94,601,-35,12,194,0,0,0,0,0,0,0,0,0,0,0
0,0,2073,1,-87,603,-35,11,196,0,0,0,0,0,0,0,0,0,0,0
0,0,2069,2,-102,601,-35,11,176,0,0,0,0,0,0,0,0,0,0,0
0,0,2073,5,-106,601,-35,10,178,0,0,0,0,0,0,0,0,0,0,0
0,0,2078,3,-101,602,-34,11,189,0,0,0,0,0,0,0,0,0,0,0
0,0,2072,4,-104,602,-33,11,182,0,0,0,0,0,0,0,0,0,0,0
0,0,2069,1,-93,602,-34,13,188,0,0,0,0,0,0,0,0,0,0,0
0,0,2080,3,-94,602,-35,12,198,0,0,0,0,0,0,0,0,0,0,0
0,0,2076,4,-103,601,-36,13,185,0,0,0,0,0,0,0,0,0,0,0
0,0,2071,8,-105,603,-35,13,185,0,0,0,0,0,0,0,0,0,0,0
0,0,2067,-1,-98,600,-36,12,173,0,0,0,0,0,0,0,0,0,0,0
0,0,2083,6,-111,603,-34,13,190,0,0,0,0,0,0,0,0,0,0,0
0,0,2075,0,-102,602,-36,12,181,0,0,0,0,0,0,0,0,0,0,0
0,0,2073,3,-98,602,-36,12,186,0,0,0,0,0,0,0,0,0,0,0
0,0,2070,-1,-105,601,-36,11,169,0,0,0,0,0,0,0,0,0,0,0
0,0,2077,-1,-94,604,-36,13,192,0,0,0,0,0,0,0,0,0,0,0
0,0,2082,5,-91,604,-36,10,204,0,0,0,0,0,0,0,0,0,0,0
0,0,2078,5,-92,602,-36,10,197,0,0,0,0,0,0,0,0,0,0,0
0,0,2076,-3,-96,602,-35,10,183,0,0,0,0,0,0,0,0,0,0,0
0,0,2071,0,-105,601,-37,10,170,0,0,0,0,0,0,0,0,0,0,0
0,0,2075,5,-101,601,-35,10,185,0,0,0,0,0,0,0,0,0,0,0
0,0,2072,10,-86,603,-34,11,206,0,0,0,0,0,0,0,0,0,0,0
0,0,2073,4,-83,601,-34,12,203,0,0,0,0,0,0,0,0,0,0,0
0,0,2076,-1,-96,603,-34,11,188,0,0,0,0,0,0,0,0,0,0,0
0,0,2074,-1,-99,601,-34,12,182,0,0,0,0,0,0,0,0,0,0,0
0,0,2075,6,-97,602,-34,12,194,0,0,0,0,0,0,0,0,0,0,0
0,0,2079,-1,-103,601,-34,10,181,0,0,0,0,0,0,0,0,0,0,0
0,0,2067,9,-105,603,-34,10,180,0,0,0,0,0,0,0,0,0,0,0
0,0,2079,7,-108,603,-34,12,189,0,0,0,0,0,0,0,0,0,0,0
0,0,2074,3,-108,602,-36,12,177,0,0,0,0,0,0,0,0,0,0,0
0,0,2076,0,-109,602,-34,10,175,0,0,0,0,0,0,0,0,0,0,0
0,0,2075,10,-85,602,-36,11,207,0,0,0,0,0,0,0,0,0,0,0
0,0,2076,2,-95,603,-33,10,193,0,0,0,0,0,0,0,0,0,0,0
0,0,2080,-7,-97,601,-35,11,182,0,0,0,0,0,0,0,0,0,0,0
0,0,2073,11,-92,602,-37,10,197,0,0,0,0,0,0,0,0,0,0,0
0,0,2072,5,-99,604,-35,10,187,0,0,0,0,0,0,0,0,0,0,0
0,0,2079,2,-106,603,-35,12,185,0,0,0,0,0,0,0,0,0,0,0
0,0,2077,0,-105,604,-34,13,185,0,0,0,0,0,0,0,0,0,0,0
0,0,2075,2,-96,604,-35,11,191,0,0,0,0,0,0,0,0,0,0,0
0,0,2072,5,-93,601,-35,11,191,0,0,0,0,0,0,0,0,0,0,0
0,0,2078,5,-95,600,-35,12,195,0,0,0,0,0,0,0,0,0,0,0
0,0,2072,-5,-97,603,-37,12,177,0,0,0,0,0,0,0,0,0,0,0
0,0,2081,4,-98,602,-36,10,193,0,0,0,0,0,0,0,0,0,0,0
0,0,2074,3,-96,603,-36,12,190,0,0,0,0,0,0,0,0,0,0,0
0,0,2074,4,-99,601,-34,12,188,0,0,0,0,0,0,0,0,0,0,0
0,0,2074,13,-100,603,-34,11,197,0,0,0,0,0,0,0,0,0,0,0
0,0,2073,-2,-98,601,-36,13,180,0,0,0,0,0,0,0,0,0,0,0
0,0,2075,5,-109,602,-37,12,178,0,0,0,0,0,0,0,0,0,0,0
0,0,2080,10,-87,604,-35,11,213,0,0,0,0,0,0,0,0,0,0,0
0,0,2079,7,-93,602,-36,12,201,0,0,0,0,0,0,0,0,0,0,0
0,0,2077,10,-94,603,-35,12,203,0,0,0,0,0,0,0,0,0,0,0
0,0,2074,4,-98,602,-35,11,188,0,0,0,0,0,0,0,0,0,0,0
0,0,2086,9,-99,602,-35,12,205,0,0,0,0,0,0,0,0,0,0,0
0,0,2068,5,-101,603,-34,12,183,0,0,0,0,0,0,0,0,0,0,0
0,0,2070,1,-94,603,-36,10,184,0,0,0,0,0,0,0,0,0,0,0
0,0,2061,4,-103,602,-34,11,171,0,0,0,0,0,0,0,0,0,0,0
0,0,2066,-1,-100,602,-34,12,174,0,0,0,0,0,0,0,0,0,0,0
0,0,2075,2,-89,601,-35,12,196,0,0,0,0,0,0,0,0,0,0,0
0,0,2077,10,-95,602,-34,10,200,0,0,0,0,0,0,0,0,0,0,0
0,0,2077,2,-94,599,-36,12,190,0,0,0,0,0,0,0,0,0,0,0
0,0,2072,1,-99,603,-35,11,183,0,0,0,0,0,0,0,0,0,0,0
0,0,2069,-6,-97,601,-34,11,173,0,0,0,0,0,0,0,0,0,0,0
0,0,2067,3,-105,600,-34,11,172,0,0,0,0,0,0,0,0,0,0,0
0,0,2068,4,-103,602,-36,11,176,0,0,0,0,0,0,0,0,0,0,0
0,0,2073,-2,-102,603,-36,9,174,0,0,0,0,0,0,0,0,0,0,0
0,0,2066,7,-96,602,-36,11,184,0,0,0,0,0,0,0,0,0,0,0
0,0,2070,6,-92,603,-36,12,193,0,0,0,0,0,0,0,0,0,0,0
0,0,2072,11,-97,600,-36,13,193,0,0,0,0,0,0,0,0,0,0,0
0,0,2075,-2,-99,602,-35,12,182,0,0,0,0,0,0,0,0,0,0,0
0,0,2071,6,-96,604,-33,12,194,0,0,0,0,0,0,0,0,0,0,0
0,0,2076,0,-98,602,-35,11,186,0,0,0,0,0,0,0,0,0,0,0
0,0,2075,1,-97,602,-36,11,186,0,0,0,0,0,0,0,0,0,0,0
0,0,2075,15,-99,601,-35,13,200,0,0,0,0,0,0,0,0,0,0,0
0,0,2072,6,-100,601,-36,12,185,0,0,0,0,0,0,0,0,0,0,0
0,0,2079,2,-113,601,-34,11,176,0,0,0,0,0,0,0,0,0,0,0
0,0,2074,9,-97,602,-36,11,193,0,0,0,0,0,0,0,0,0,0,0
0,0,2074,8,-99,599,-35,11,188,0,0,0,0,0,0,0,0,0,0,0
0,0,2071,7,-112,601,-35,10,172,0,0,0,0,0,0,0,0,0,0,0
0,0,2081,1,-95,600,-33,10,194,0,0,0,0,0,0,0,0,0,0,0
0,0,2071,6,-102,600,-37,10,178,0,0,0,0,0,0,0,0,0,0,0
0,0,2072,1,-101,601,-35,13,181,0,0,0,0,0,0,0,0,0,0,0
0,0,2082,7,-109,604,-35,12,191,0,0,0,0,0,0,0,0,0,0,0
0,0,2078,13,-100,602,-34,10,199,0,0,0,0,0,0,0,0,0,0,0
0,0,2079,-4,-99,601,-35,10,181,0,0,0,0,0,0,0,0,0,0,0
0,0,2072,6,-109,601,-34,11,177,0,0,0,0,0,0,0,0,0,0,0
0,0,2075,2,-98,600,-34,11,186,0,0,0,0,0,0,0,0,0,0,0
0,0,2077,6,-97,602,-35,11,194,0,0,0,0,0,0,0,0,0,0,0
0,0,2077,1,-99,603,-36,12,188,0,0,0,0,0,0,0,0,0,0,0
0,0,2074,6,-98,601,-34,14,193,0,0,0,0,0,0,0,0,0,0,0
0,0,2070,3,-102,602,-34,12,181,0,0,0,0,0,0,0,0,0,0,0
0,0,2077,9,-108,603,-34,12,189,0,0,0,0,0,0,0,0,0,0,0
0,0,2067,4,-83,601,-35,14,198,0,0,0,0,0,0,0,0,0,0,0
0,0,2077,0,-103,603,-35,13,185,0,0,0,0,0,0,0,0,0,0,0
0,0,2072,3,-105,601,-35,12,178,0,0,0,0,0,0,0,0,0,0,0
0,0,2081,6,-99,602,-36,10,194,0,0,0,0,0,0,0,0,0,0,0
0,0,2074,8,-97,601,-37,11,190,0,0,0,0,0,0,0,0,0,0,0
0,0,2081,6,-89,602,-36,12,206,0,0,0,0,0,0,0,0,0,0,0
0,0,2070,4,-94,602,-35,12,189,0,0,0,0,0,0,0,0,0,0,0
0,0,2072,7,-101,601,-35,11,185,0,0,0,0,0,0,0,0,0,0,0
0,0,2078,8,-100,600,-36,13,193,0,0,0,0,0,0,0,0,0,0,0
0,0,2069,0,-110,600,-34,12,167,0,0,0,0,0,0,0,0,0,0,0
0,0,2074,0,-94,601,-35,12,188,0,0,0,0,0,0,0,0,0,0,0
0,0,2078,3,-101,602,-35,13,190,0,0,0,0,0,0,0,0,0,0,0
0,0,2072,1,-98,602,-33,11,185,0,0,0,0,0,0,0,0,0,0,0
0,0,2080,5,-98,602,-36,11,194,0,0,0,0,0,0,0,0,0,0,0
0,0,2081,1,-95,603,-34,13,199,0,0,0,0,0,0,0,0,0,0,0
0,0,2075,5,-107,603,-35,11,182,0,0,0,0,0,0,0,0,0,0,0
0,0,2073,4,-99,602,-36,11,185,0,0,0,0,0,0,0,0,0,0,0
0,0,2078,7,-107,602,-33,12,189,0,0,0,0,0,0,0,0,0,0,0
0,0,2076,5,-97,601,-35,12,192,0,0,0,0,0,0,0,0,0,0,0
0,0,2072,4,-106,601,-36,12,177,0,0,0,0,0,0,0,0,0,0,0
0,0,2066,6,-104,603,-34,11,178,0,0,0,0,0,0,0,0,0,0,0
0,0,2075,4,-109,601,-35,13,179,0,0,0,0,0,0,0,0,0,0,0
0,0,2084,5,-98,602,-35,12,200,0,0,0,0,0,0,0,0,0,0,0
0,0,2074,0,-103,603,-34,12,182,0,0,0,0,0,0,0,0,0,0,0
0,0,2073,8,-103,602,-36,11,185,0,0,0,0,0,0,0,0,0,0,0
0,0,2082,6,-88,603,-33,11,211,0,0,0,0,0,0,0,0,0,0,0
0,0,2075,5,-103,602,-36,12,185,0,0,0,0,0,0,0,0,0,0,0
0,0,2074,6,-95,603,-35,11,194,0,0,0,0,0,0,0,0,0,0,0
0,0,2076,4,-100,602,-36,11,187,0,0,0,0,0,0,0,0,0,0,0
0,0,2072,-2,-105,604,-34,13,177,0,0,0,0,0,0,0,0,0,0,0
0,0,2077,2,-107,603,-35,12,182,0,0,0,0,0,0,0,0,0,0,0
0,0,2076,3,-108,603,-35,12,181,0,0,0,0,0,0,0,0,0,0,0
0,0,2067,3,-93,603,-35,12,187,0,0,0,0,0,0,0,0,0,0,0
0,0,2075,0,-101,602,-35,13,184,0,0,0,0,0,0,0,0,0,0,0
0,0,2075,4,-100,602,-37,12,186,0,0,0,0,0,0,0,0,0,0,0
0,0,2074,5,-85,601,-35,11,201,0,0,0,0,0,0,0,0,0,0,0
0,0,2073,-2,-90,600,-36,14,188,0,0,0,0,0,0,0,0,0,0,0
0,0,2076,-2,-97,602,-35,11,184,0,0,0,0,0,0,0,0,0,0,0
0,0,2071,2,-101,600,-36,13,179,0,0,0,0,0,0,0,0,0,0,0
0,0,2069,-3,-104,603,-36,10,168,0,0,0,0,0,0,0,0,0,0,0
0,0,2070,6,-97,600,-36,12,185,0,0,0,0,0,0,0,0,0,0,0
0,0,2078,3,-105,600,-36,10,180,0,0,0,0,0,0,0,0,0,0,0
0,0,2068,5,-92,603,-35,10,189,0,0,0,0,0,0,0,0,0,0,0
0,0,2079,4,-101,602,-35,10,189,0,0,0,0,0,0,0,0,0,0,0
0,0,2076,0,-90,601,-36,11,192,0,0,0,0,0,0,0,0,0,0,0
0,0,2074,-2,-96,602,-36,12,183,0,0,0,0,0,0,0,0,0,0,0
0,0,2071,-1,-101,601,-35,12,176,0,0,0,0,0,0,0,0,0,0,0
0,0,2077,10,-103,601,-37,12,190,0,0,0,0,0,0,0,0,0,0,0
0,0,2082,2,-100,602,-35,11,192,0,0,0,0,0,0,0,0,0,0,0
0,0,2075,5,-103,602,-37,10,182,0,0,0,0,0,0,0,0,0,0,0
0,0,2072,-5,-95,602,-35,11,179,0,0,0,0,0,0,0,0,0,0,0
0,0,2080,4,-95,601,-34,11,197,0,0,0,0,0,0,0,0,0,0,0
0,0,2078,8,-102,601,-35,11,191,0,0,0,0,0,0,0,0,0,0,0
0,0,2078,5,-100,602,-35,11,191,0,0,0,0,0,0,0,0,0,0,0
0,0,2079,3,-94,602,-34,11,197,0,0,0,0,0,0,0,0,0,0,0
0,0,2077,-3,-100,602,-37,12,180,0,0,0,0,0,0,0,0,0,0,0
0,0,2078,2,-95,601,-35,10,191,0,0,0,0,0,0,0,0,0,0,0
0,0,2075,1,-95,601,-36,13,189,0,0,0,0,0,0,0,0,0,0,0
0,0,2076,6,-106,602,-36,12,184,0,0,0,0,0,0,0,0,0,0,0
0,0,2081,2,-87,600,-36,12,202,0,0,0,0,0,0,0,0,0,0,0
0,0,2076,0,-96,601,-36,12,187,0,0,0,0,0,0,0,0,0,0,0
0,0,2076,3,-94,600,-36,12,191,0,0,0,0,0,0,0,0,0,0,0
0,0,2073,1,-92,600,-34,12,190,0,0,0,0,0,0,0,0,0,0,0
0,0,2075,6,-90,600,-34,10,197,0,0,0,0,0,0,0,0,0,0,0
0,0,2076,5,-100,601,-34,12,190,0,0,0,0,0,0,0,0,0,0,0
0,0,2078,2,-98,601,-34,12,191,0,0,0,0,0,0,0,0,0,0,0
0,0,2074,-3,-99,603,-35,11,180,0,0,0,0,0,0,0,0,0,0,0
0,0,2073,1,-97,602,-34,12,187,0,0,0,0,0,0,0,0,0,0,0
0,0,2073,1,-99,602,-34,11,184,0,0,0,0,0,0,0,0,0,0,0
0,0,2078,5,-93,600,-34,12,198,0,0,0,0,0,0,0,0,0,0,0
0,0,2076,6,-91,602,-35,12,200,0,0,0,0,0,0,0,0,0,0,0
0,0,2075,0,-88,602,-38,13,194,0,0,0,0,0,0,0,0,0,0,0
0,0,2078,4,-106,603,-38,12,183,0,0,0,0,0,0,0,0,0,0,0
0,0,2078,4,-107,603,-36,13,185,0,0,0,0,0,0,0,0,0,0,0
0,0,2075,1,-99,601,-35,11,184,0,0,0,0,0,0,0,0,0,0,0
0,0,2076,-3,-110,600,-35,13,170,0,0,0,0,0,0,0,0,0,0,0
0,0,2083,2,-88,602,-34,11,206,0,0,0,0,0,0,0,0,0,0,0
0,0,2077,3,-91,601,-34,12,198,0,0,0,0,0,0,0,0,0,0,0
0,0,2072,1,-100,601,-35,12,181,0,0,0,0,0,0,0,0,0,0,0
0,0,2080,3,-106,602,-35,12,186,0,0,0,0,0,0,0,0,0,0,0
0,0,2072,3,-104,601,-34,12,180,0,0,0,0,0,0,0,0,0,0,0
0,0,2078,0,-108,602,-33,12,181,0,0,0,0,0,0,0,0,0,0,0
0,0,2077,4,-98,601,-34,12,192,0,0,0,0,0,0,0,0,0,0,0
0,0,2071,0,-91,601,-36,14,189,0,0,0,0,0,0,0,0,0,0,0
0,0,2070,-1,-101,601,-37,13,174,0,0,0,0,0,0,0,0,0,0,0
0,0,2077,3,-100,601,-35,12,188,0,0,0,0,0,0,0,0,0,0,0
0,0,2070,4,-92,602,-34,12,192,0,0,0,0,0,0,0,0,0,0,0
0,0,2068,6,-99,603,-34,12,186,0,0,0,0,0,0,0,0,0,0,0
0,0,2073,8,-105,601,-36,12,183,0,0,0,0,0,0,0,0,0,0,0
0,0,2082,9,-100,602,-33,12,202,0,0,0,0,0,0,0,0,0,0,0
0,0,2082,2,-94,601,-35,11,197,0,0,0,0,0,0,0,0,0,0,0
0,0,2072,6,-98,601,-35,12,188,0,0,0,0,0,0,0,0,0,0,0
0,0,2069,1,-98,602,-35,13,182,0,0,0,0,0,0,0,0,0,0,0
0,0,2081,4,-105,603,-35,12,190,0,0,0,0,0,0,0,0,0,0,0
0,0,2070,3,-111,604,-34,13,175,0,0,0,0,0,0,0,0,0,0,0
0,0,2079,9,-105,601,-33,11,192,0,0,0,0,0,0,0,0,0,0,0
0,0,2077,0,-106,601,-35,11,178,0,0,0,0,0,0,0,0,0,0,0
0,0,2077,-1,-95,601,-36,10,185,0,0,0,0,0,0,0,0,0,0,0
0,0,2072,3,-105,601,-36,10,175,0,0,0,0,0,0,0,0,0,0,0
0,0,2076,4,-109,603,-33,10,181,0,0,0,0,0,0,0,0,0,0,0
0,0,2076,3,-105,602,-35,10,181,0,0,0,0,0,0,0,0,0,0,0
0,0,2071,9,-98,602,-36,10,188,0,0,0,0,0,0,0,0,0,0,0
0,0,2075,5,-99,602,-37,12,188,0,0,0,0,0,0,0,0,0,0,0
0,0,2076,-3,-101,601,-34,12,180,0,0,0,0,0,0,0,0,0,0,0
0,0,2074,-1,-91,602,-34,12,191,0,0,0,0,0,0,0,0,0,0,0
0,0,2074,0,-107,601,-35,11,174,0,0,0,0,0,0,0,0,0,0,0
0,0,2074,-1,-104,603,-34,12,179,0,0,0,0,0,0,0,0,0,0,0
0,0,2078,3,-98,601,-35,12,191,0,0,0,0,0,0,0,0,0,0,0
0,0,2078,3,-96,602,-36,12,193,0,0,0,0,0,0,0,0,0,0,0
0,0,2079,14,-95,602,-34,11,207,0,0,0,0,0,0,0,0,0,0,0
0,0,2070,8,-109,602,-34,12,179,0,0,0,0,0,0,0,0,0,0,0
0,0,2075,9,-94,602,-34,11,199,0,0,0,0,0,0,0,0,0,0,0
0,0,2068,0,-96,602,-36,12,180,0,0,0,0,0,0,0,0,0,0,0
0,0,2076,0,-107,603,-34,11,179,0,0,0,0,0,0,0,0,0,0,0
0,0,2078,-1,-94,602,-36,12,190,0,0,0,0,0,0,0,0,0,0,0
0,0,2077,11,-100,601,-34,11,196,0,0,0,0,0,0,0,0,0,0,0
0,0,2064,3,-109,603,-35,12,168,0,0,0,0,0,0,0,0,0,0,0
0,0,2071,-10,-94,603,-35,12,176,0,0,0,0,0,0,0,0,0,0,0
0,0,2081,3,-84,602,-34,12,210,0,0,0,0,0,0,0,0,0,0,0
0,0,2077,14,-95,602,-36,11,203,0,0,0,0,0,0,0,0,0,0,0
0,0,2081,9,-109,603,-36,11,189,0,0,0,0,0,0,0,0,0,0,0
0,0,2073,7,-92,602,-34,11,197,0,0,0,0,0,0,0,0,0,0,0
0,0,2073,5,-102,603,-35,12,186,0,0,0,0,0,0,0,0,0,0,0
0,0,2077,7,-94,601,-35,11,197,0,0,0,0,0,0,0,0,0,0,0
0,0,2080,10,-101,604,-35,11,199,0,0,0,0,0,0,0,0,0,0,0
0,0,2073,5,-91,602,-36,13,196,0,0,0,0,0,0,0,0,0,0,0
0,0,2079,1,-101,601,-35,11,186,0,0,0,0,0,0,0,0,0,0,0
0,0,2072,6,-101,604,-36,12,187,0,0,0,0,0,0,0,0,0,0,0
0,0,2081,2,-95,602,-35,12,197,0,0,0,0,0,0,0,0,0,0,0
0,0,2074,0,-94,603,-35,12,190,0,0,0,0,0,0,0,0,0,0,0
0,0,2076,-3,-97,602,-34,10,183,0,0,0,0,0,0,0,0,0,0,0
0,0,2074,-5,-86,602,-35,10,189,0,0,0,0,0,0,0,0,0,0,0
0,0,2072,5,-93,604,-35,12,195,0,0,0,0,0,0,0,0,0,0,0
0,0,2079,16,-99,601,-35,14,206,0,0,0,0,0,0,0,0,0,0,0
0,0,2079,-4,-98,602,-36,12,184,0,0,0,0,0,0,0,0,0,0,0
0,0,2079,4,-97,602,-34,10,194,0,0,0,0,0,0,0,0,0,0,0
0,0,2082,8,-98,603,-33,13,205,0,0,0,0,0,0,0,0,0,0,0
0,0,2074,7,-105,602,-33,12,187,0,0,0,0,0,0,0,0,0,0,0
0,0,2072,-3,-105,602,-36,13,172,0,0,0,0,0,0,0,0,0,0,0
0,0,2074,-6,-102,601,-36,10,170,0,0,0,0,0,0,0,0,0,0,0
0,0,2075,2,-107,602,-36,11,177,0,0,0,0,0,0,0,0,0,0,0
0,0,2074,1,-101,601,-34,12,183,0,0,0,0,0,0,0,0,0,0,0
0,0,2077,6,-103,603,-34,11,190,0,0,0,0,0,0,0,0,0,0,0
0,0,2080,7,-97,603,-34,11,200,0,0,0,0,0,0,0,0,0,0,0
0,0,2072,4,-96,602,-35,12,189,0,0,0,0,0,0,0,0,0,0,0
0,0,2080,-2,-97,602,-35,12,189,0,0,0,0,0,0,0,0,0,0,0
0,0,2079,3,-89,604,-35,12,204,0,0,0,0,0,0,0,0,0,0,0
0,0,2075,14,-114,602,-36,12,183,0,0,0,0,0,0,0,0,0,0,0
0,0,2077,14,-109,603,-35,11,191,0,0,0,0,0,0,0,0,0,0,0
0,0,2072,0,-108,602,-36,11,171,0,0,0,0,0,0,0,0,0,0,0
0,0,2074,4,-94,603,-35,10,192,0,0,0,0,0,0,0,0,0,0,0
0,0,2083,4,-108,603,-34,12,190,0,0,0,0,0,0,0,0,0,0,0
0,0,2078,1,-107,601,-34,12,181,0,0,0,0,0,0,0,0,0,0,0
0,0,2077,1,-100,601,-34,13,188,0,0,0,0,0,0,0,0,0,0,0
0,0,2077,4,-90,602,-34,11,200,0,0,0,0,0,0,0,0,0,0,0
0,0,2077,3,-93,602,-35,12,196,0,0,0,0,0,0,0,0,0,0,0
0,0,2079,8,-91,602,-34,12,206,0,0,0,0,0,0,0,0,0,0,0
0,0,2077,4,-102,603,-34,12,190,0,0,0,0,0,0,0,0,0,0,0
0,0,2071,7,-102,602,-36,12,184,0,0,0,0,0,0,0,0,0,0,0
0,0,2075,-2,-101,603,-36,12,180,0,0,0,0,0,0,0,0,0,0,0
0,0,2076,1,-111,602,-35,11,174,0,0,0,0,0,0,0,0,0,0,0
0,0,2075,2,-99,601,-37,13,185,0,0,0,0,0,0,0,0,0,0,0
0,0,2070,1,-105,601,-36,11,172,0,0,0,0,0,0,0,0,0,0,0
0,0,2085,-1,-101,603,-35,13,193,0,0,0,0,0,0,0,0,0,0,0
0,0,2078,-4,-94,604,-35,12,190,0,0,0,0,0,0,0,0,0,0,0
0,0,2070,4,-114,603,-36,12,169,0,0,0,0,0,0,0,0,0,0,0
0,0,2074,6,-98,602,-36,11,189,0,0,0,0,0,0,0,0,0,0,0
0,0,2072,4,-86,601,-36,10,195,0,0,0,0,0,0,0,0,0,0,0
0,0,2067,7,-94,602,-36,12,188,0,0,0,0,0,0,0,0,0,0,0
0,0,2071,-3,-99,603,-34,12,179,0,0,0,0,0,0,0,0,0,0,0
0,0,2070,0,-106,600,-34,11,171,0,0,0,0,0,0,0,0,0,0,0
0,0,2080,2,-95,602,-36,13,196,0,0,0,0,0,0,0,0,0,0,0
0,0,2080,1,-95,602,-34,12,196,0,0,0,0,0,0,0,0,0,0,0
0,0,2075,-3,-95,601,-35,11,183,0,0,0,0,0,0,0,0,0,0,0
0,0,2075,12,-86,602,-35,11,209,0,0,0,0,0,0,0,0,0,0,0
0,0,2076,9,-90,602,-36,12,203,0,0,0,0,0,0,0,0,0,0,0
0,0,2079,4,-100,601,-34,12,192,0,0,0,0,0,0,0,0,0,0,0
0,0,2071,6,-97,600,-37,11,184,0,0,0,0,0,0,0,0,0,0,0
0,0,2071,1,-98,604,-37,12,183,0,0,0,0,0,0,0,0,0,0,0
0,0,2065,0,-90,602,-38,12,181,0,0,0,0,0,0,0,0,0,0,0
0,0,2073,1,-92,601,-36,13,190,0,0,0,0,0,0,0,0,0,0,0
0,0,2074,2,-93,602,-34,12,193,0,0,0,0,0,0,0,0,0,0,0
0,0,2073,2,-102,601,-35,11,180,0,0,0,0,0,0,0,0,0,0,0
0,0,2073,-3,-96,602,-36,13,182,0,0,0,0,0,0,0,0,0,0,0
0,0,2078,0,-103,604,-36,12,185,0,0,0,0,0,0,0,0,0,0,0
0,0,2081,-2,-105,603,-36,13,183,0,0,0,0,0,0,0,0,0,0,0
0,0,2080,7,-92,602,-35,12,204,0,0,0,0,0,0,0,0,0,0,0
0,0,2079,4,-91,600,-35,12,199,0,0,0,0,0,0,0,0,0,0,0
0,0,2074,3,-100,601,-34,12,186,0,0,0,0,0,0,0,0,0,0,0
