1,2,3,4,5,6,7,8,9,10,11,12,13,14,15,16,17,18,19,20
UserData_20,Frame ID£º0x01,FC_ACC_X,FC_ACC_Y,FC_ACC_Z,FC_GYR_X,FC_GYR_Y,FC_GYR_Z,FC_STA_Shock,Frame ID£º0x02,FC_MAG_X,FC_MAG_Y,FC_MAG_Z,FC_ALT_BAR,FC_SenserTMP,FC_STA_BAR,FC_STA_MAG,Frame ID£º0x03,FC_ATT_ROL,FC_ATT_PIT
0,0,-15,-2028,-108,597,-33,4,126,0,0,0,0,0,0,0,0,0,0,0
0,0,-21,-2027,-101,596,-33,3,126,0,0,0,0,0,0,0,0,0,0,0
0,0,-20,-2029,-102,595,-32,5,126,0,0,0,0,0,0,0,0,0,0,0
0,0,-17,-2032,-110,594,-32,5,117,0,0,0,0,0,0,0,0,0,0,0
0,0,-20,-2029,-95,596,-32,5,134,0,0,0,0,0,0,0,0,0,0,0
0,0,-25,-2030,-104,596,-34,3,115,0,0,0,0,0,0,0,0,0,0,0
0,0,-20,-2035,-104,595,-31,4,118,0,0,0,0,0,0,0,0,0,0,0
0,0,-20,-2031,-103,594,-33,4,120,0,0,0,0,0,0,0,0,0,0,0
0,0,-19,-2033,-95,595,-32,2,127,0,0,0,0,0,0,0,0,0,0,0
0,0,-22,-2034,-101,597,-34,4,119,0,0,0,0,0,0,0,0,0,0,0
0,0,-17,-2032,-106,594,-33,4,119,0,0,0,0,0,0,0,0,0,0,0
0,0,-26,-2023,-106,595,-33,4,120,0,0,0,0,0,0,0,0,0,0,0
0,0,-18,-2039,-106,597,-32,2,113,0,0,0,0,0,0,0,0,0,0,0
0,0,-15,-2039,-106,595,-32,2,114,0,0,0,0,0,0,0,0,0,0,0
0,0,-17,-2031,-112,596,-32,3,116,0,0,0,0,0,0,0,0,0,0,0
0,0,-20,-2029,-97,595,-34,3,127,0,0,0,0,0,0,0,0,0,0,0
0,0,-16,-2026,-112,594,-33,2,118,0,0,0,0,0,0,0,0,0,0,0
0,0,-19,-2035,-102,596,-33,2,118,0,0,0,0,0,0,0,0,0,0,0
0,0,-16,-2028,-100,596,-32,1,130,0,0,0,0,0,0,0,0,0,0,0
0,0,-18,-2034,-100,595,-32,4,124,0,0,0,0,0,0,0,0,0,0,0
0,0,-22,-2033,-90,595,-31,3,131,0,0,0,0,0,0,0,0,0,0,0
0,0,-12,-2039,-102,596,-32,3,123,0,0,0,0,0,0,0,0,0,0,0
0,0,-21,-2033,-102,595,-33,3,118,0,0,0,0,0,0,0,0,0,0,0
0,0,-27,-2038,-105,596,-33,3,105,0,0,0,0,0,0,0,0,0,0,0
0,0,-12,-2038,-101,595,-33,3,123,0,0,0,0,0,0,0,0,0,0,0
0,0,-20,-2029,-102,596,-32,3,125,0,0,0,0,0,0,0,0,0,0,0
0,0,-24,-2035,-102,596,-33,4,115,0,0,0,0,0,0,0,0,0,0,0
0,0,-18,-2026,-103,597,-31,4,132,0,0,0,0,0,0,0,0,0,0,0
0,0,-18,-2026,-104,595,-32,2,126,0,0,0,0,0,0,0,0,0,0,0
0,0,-20,-2036,-103,596,-34,2,114,0,0,0,0,0,0,0,0,0,0,0
0,0,-15,-2033,-111,597,-33,2,116,0,0,0,0,0,0,0,0,0,0,0
0,0,-21,-2034,-105,596,-32,2,115,0,0,0,0,0,0,0,0,0,0,0
0,0,-15,-2037,-94,597,-33,4,131,0,0,0,0,0,0,0,0,0,0,0
0,0,-17,-2038,-100,596,-33,5,122,0,0,0,0,0,0,0,0,0,0,0
0,0,-25,-2035,-122,595,-34,2,90,0,0,0,0,0,0,0,0,0,0,0
0,0,-26,-2028,-113,596,-34,2,106,0,0,0,0,0,0,0,0,0,0,0
0,0,-20,-2025,-114,595,-32,3,116,0,0,0,0,0,0,0,0,0,0,0
0,0,-24,-2031,-110,596,-34,2,108,0,0,0,0,0,0,0,0,0,0,0
0,0,-18,-2035,-112,597,-33,3,111,0,0,0,0,0,0,0,0,0,0,0
0,0,-16,-2033,-106,596,-33,3,120,0,0,0,0,0,0,0,0,0,0,0
0,0,-24,-2028,-107,596,-34,2,114,0,0,0,0,0,0,0,0,0,0,0
0,0,-30,-2035,-115,597,-34,3,95,0,0,0,0,0,0,0,0,0,0,0
0,0,-24,-2026,-117,597,-32,3,110,0,0,0,0,0,0,0,0,0,0,0
0,0,-17,-2026,-106,597,-33,4,128,0,0,0,0,0,0,0,0,0,0,0
0,0,-19,-2034,-117,596,-33,3,105,0,0,0,0,0,0,0,0,0,0,0
0,0,-20,-2034,-103,595,-33,2,116,0,0,0,0,0,0,0,0,0,0,0
0,0,-31,-2031,-115,595,-34,2,95,0,0,0,0,0,0,0,0,0,0,0
0,0,-21,-2033,-109,595,-33,2,110,0,0,0,0,0,0,0,0,0,0,0
0,0,-24,-2033,-106,595,-34,3,110,0,0,0,0,0,0,0,0,0,0,0
0,0,-18,-2032,-101,597,-32,3,126,0,0,0,0,0,0,0,0,0,0,0
0,0,-16,-2028,-111,596,-30,2,122,0,0,0,0,0,0,0,0,0,0,0
0,0,-20,-2032,-109,595,-33,4,114,0,0,0,0,0,0,0,0,0,0,0
0,0,-17,-2033,-110,597,-34,3,115,0,0,0,0,0,0,0,0,0,0,0
0,0,-19,-2034,-100,597,-34,3,122,0,0,0,0,0,0,0,0,0,0,0
0,0,-19,-2032,-109,595,-32,3,115,0,0,0,0,0,0,0,0,0,0,0
0,0,-23,-2029,-104,594,-34,3,116,0,0,0,0,0,0,0,0,0,0,0
0,0,-22,-2029,-109,595,-34,4,114,0,0,0,0,0,0,0,0,0,0,0
0,0,-20,-2040,-109,597,-34,3,106,0,0,0,0,0,0,0,0,0,0,0
0,0,-25,-2036,-108,597,-34,3,106,0,0,0,0,0,0,0,0,0,0,0
0,0,-28,-2027,-101,596,-33,4,120,0,0,0,0,0,0,0,0,0,0,0
0,0,-26,-2029,-107,597,-34,3,113,0,0,0,0,0,0,0,0,0,0,0
0,0,-22,-2033,-104,598,-33,2,117,0,0,0,0,0,0,0,0,0,0,0
0,0,-18,-2040,-98,596,-34,4,119,0,0,0,0,0,0,0,0,0,0,0
0,0,-21,-2030,-104,598,-34,6,124,0,0,0,0,0,0,0,0,0,0,0
0,0,-19,-2044,-99,596,-35,3,111,0,0,0,0,0,0,0,0,0,0,0
0,0,-24,-2029,-113,595,-32,4,110,0,0,0,0,0,0,0,0,0,0,0
0,0,-19,-2036,-106,599,-35,3,115,0,0,0,0,0,0,0,0,0,0,0
0,0,-18,-2032,-101,598,-33,5,128,0,0,0,0,0,0,0,0,0,0,0
0,0,-17,-2035,-100,596,-34,2,121,0,0,0,0,0,0,0,0,0,0,0
0,0,-18,-2036,-115,597,-32,3,108,0,0,0,0,0,0,0,0,0,0,0
0,0,-22,-2035,-113,597,-33,2,105,0,0,0,0,0,0,0,0,0,0,0
0,0,-19,-2034,-113,596,-34,3,108,0,0,0,0,0,0,0,0,0,0,0
0,0,-27,-2035,-103,594,-34,3,107,0,0,0,0,0,0,0,0,0,0,0
0,0,-22,-2034,-106,595,-34,2,110,0,0,0,0,0,0,0,0,0,0,0
0,0,-15,-2035,-97,596,-32,4,130,0,0,0,0,0,0,0,0,0,0,0
0,0,-30,-2026,-119,594,-32,3,99,0,0,0,0,0,0,0,0,0,0,0
0,0,-16,-2030,-107,597,-32,3,124,0,0,0,0,0,0,0,0,0,0,0
0,0,-22,-2032,-120,597,-33,3,102,0,0,0,0,0,0,0,0,0,0,0
0,0,-25,-2032,-108,598,-34,2,110,0,0,0,0,0,0,0,0,0,0,0
0,0,-25,-2022,-110,597,-34,1,116,0,0,0,0,0,0,0,0,0,0,0
0,0,-23,-2024,-101,599,-34,4,130,0,0,0,0,0,0,0,0,0,0,0
0,0,-17,-2031,-115,596,-32,3,113,0,0,0,0,0,0,0,0,0,0,0
0,0,-23,-2032,-104,596,-34,4,116,0,0,0,0,0,0,0,0,0,0,0
0,0,-18,-2030,-107,597,-33,2,120,0,0,0,0,0,0,0,0,0,0,0
0,0,-20,-2034,-104,596,-32,3,118,0,0,0,0,0,0,0,0,0,0,0
0,0,-16,-2035,-107,596,-33,3,117,0,0,0,0,0,0,0,0,0,0,0
0,0,-26,-2044,-94,595,-34,3,109,0,0,0,0,0,0,0,0,0,0,0
0,0,-21,-2024,-96,596,-32,5,137,0,0,0,0,0,0,0,0,0,0,0
0,0,-16,-2032,-106,596,-33,2,120,0,0,0,0,0,0,0,0,0,0,0
0,0,-9,-2027,-105,594,-34,4,132,0,0,0,0,0,0,0,0,0,0,0
0,0,-24,-2033,-105,596,-34,2,111,0,0,0,0,0,0,0,0,0,0,0
0,0,-21,-2032,-106,596,-34,2,114,0,0,0,0,0,0,0,0,0,0,0
0,0,-16,-2031,-102,597,-33,1,125,0,0,0,0,0,0,0,0,0,0,0
0,0,-20,-2035,-94,598,-34,2,126,0,0,0,0,0,0,0,0,0,0,0
0,0,-13,-2035,-102,596,-34,3,124,0,0,0,0,0,0,0,0,0,0,0
0,0,-21,-2028,-111,595,-33,4,115,0,0,0,0,0,0,0,0,0,0,0
0,0,-21,-2030,-106,597,-33,4,120,0,0,0,0,0,0,0,0,0,0,0
0,0,-17,-2030,-102,596,-35,2,123,0,0,0,0,0,0,0,0,0,0,0
0,0,-23,-2036,-109,597,-34,3,107,0,0,0,0,0,0,0,0,0,0,0
0,0,-17,-2022,-105,596,-33,4,132,0,0,0,0,0,0,0,0,0,0,0
0,0,-12,-2030,-100,595,-32,3,133,0,0,0,0,0,0,0,0,0,0,0
0,0,-28,-2033,-106,596,-32,3,109,0,0,0,0,0,0,0,0,0,0,0
0,0,-23,-2035,-98,596,-32,4,121,0,0,0,0,0,0,0,0,0,0,0
0,0,-12,-2039,-104,596,-34,4,120,0,0,0,0,0,0,0,0,0,0,0
0,0,-16,-2035,-107,595,-34,4,116,0,0,0,0,0,0,0,0,0,0,0
0,0,-16,-2038,-107,596,-32,4,116,0,0,0,0,0,0,0,0,0,0,0
0,0,-10,-2032,-106,597,-32,3,129,0,0,0,0,0,0,0,0,0,0,0
0,0,-15,-2035,-104,595,-34,4,120,0,0,0,0,0,0,0,0,0,0,0
0,0,-16,-2030,-113,597,-34,1,114,0,0,0,0,0,0,0,0,0,0,0
0,0,-24,-2036,-106,596,-33,3,109,0,0,0,0,0,0,0,0,0,0,0
0,0,-24,-2033,-109,596,-34,3,108,0,0,0,0,0,0,0,0,0,0,0
0,0,-27,-2032,-111,597,-34,3,105,0,0,0,0,0,0,0,0,0,0,0
0,0,-32,-2027,-115,597,-32,3,103,0,0,0,0,0,0,0,0,0,0,0
0,0,-19,-2029,-103,596,-32,4,126,0,0,0,0,0,0,0,0,0,0,0
0,0,-26,-2038,-111,597,-33,4,102,0,0,0,0,0,0,0,0,0,0,0
0,0,-18,-2029,-114,597,-32,4,117,0,0,0,0,0,0,0,0,0,0,0
0,0,-14,-2037,-106,597,-34,5,120,0,0,0,0,0,0,0,0,0,0,0
0,0,-19,-2033,-94,595,-33,2,127,0,0,0,0,0,0,0,0,0,0,0
0,0,-15,-2034,-109,595,-34,4,116,0,0,0,0,0,0,0,0,0,0,0
0,0,-14,-2025,-98,596,-34,3,137,0,0,0,0,0,0,0,0,0,0,0
0,0,-15,-2029,-98,596,-35,4,132,0,0,0,0,0,0,0,0,0,0,0
0,0,-18,-2034,-92,596,-33,3,131,0,0,0,0,0,0,0,0,0,0,0
0,0,-17,-2024,-97,597,-34,4,138,0,0,0,0,0,0,0,0,0,0,0
0,0,-18,-2030,-104,598,-34,3,124,0,0,0,0,0,0,0,0,0,0,0
0,0,-17,-2031,-107,598,-33,2,121,0,0,0,0,0,0,0,0,0,0,0
0,0,-23,-2031,-109,597,-33,2,112,0,0,0,0,0,0,0,0,0,0,0
0,0,-18,-2028,-106,597,-33,4,125,0,0,0,0,0,0,0,0,0,0,0
0,0,-23,-2034,-103,597,-31,2,117,0,0,0,0,0,0,0,0,0,0,0
0,0,-16,-2032,-101,597,-33,3,127,0,0,0,0,0,0,0,0,0,0,0
0,0,-14,-2028,-111,595,-32,3,122,0,0,0,0,0,0,0,0,0,0,0
0,0,-14,-2037,-105,595,-34,4,118,0,0,0,0,0,0,0,0,0,0,0
0,0,-18,-2033,-108,596,-31,2,117,0,0,0,0,0,0,0,0,0,0,0
0,0,-14,-2030,-114,595,-33,3,116,0,0,0,0,0,0,0,0,0,0,0
0,0,-10,-2029,-112,595,-33,3,123,0,0,0,0,0,0,0,0,0,0,0
0,0,-19,-2034,-112,595,-33,2,108,0,0,0,0,0,0,0,0,0,0,0
0,0,-17,-2033,-108,596,-33,2,116,0,0,0,0,0,0,0,0,0,0,0
0,0,-21,-2035,-107,596,-32,2,112,0,0,0,0,0,0,0,0,0,0,0
0,0,-22,-2034,-110,596,-33,4,110,0,0,0,0,0,0,0,0,0,0,0
0,0,-19,-2031,-108,597,-33,3,118,0,0,0,0,0,0,0,0,0,0,0
0,0,-21,-2034,-105,597,-33,2,115,0,0,0,0,0,0,0,0,0,0,0
0,0,-24,-2035,-98,597,-32,3,120,0,0,0,0,0,0,0,0,0,0,0
0,0,-21,-2037,-119,596,-33,3,98,0,0,0,0,0,0,0,0,0,0,0
0,0,-20,-2031,-104,596,-34,2,118,0,0,0,0,0,0,0,0,0,0,0
0,0,-21,-2037,-94,597,-32,4,126,0,0,0,0,0,0,0,0,0,0,0
0,0,-18,-2030,-103,597,-33,3,125,0,0,0,0,0,0,0,0,0,0,0
0,0,-21,-2027,-113,598,-32,2,116,0,0,0,0,0,0,0,0,0,0,0
0,0,-17,-2022,-93,596,-33,2,142,0,0,0,0,0,0,0,0,0,0,0
0,0,-19,-2030,-104,595,-32,3,122,0,0,0,0,0,0,0,0,0,0,0
0,0,-17,-2032,-107,596,-32,4,121,0,0,0,0,0,0,0,0,0,0,0
0,0,-9,-2024,-115,597,-33,2,127,0,0,0,0,0,0,0,0,0,0,0
0,0,-10,-2029,-114,597,-34,3,122,0,0,0,0,0,0,0,0,0,0,0
0,0,-19,-2029,-108,598,-32,3,122,0,0,0,0,0,0,0,0,0,0,0
0,0,-28,-2030,-96,596,-33,4,122,0,0,0,0,0,0,0,0,0,0,0
0,0,-22,-2042,-108,597,-33,1,102,0,0,0,0,0,0,0,0,0,0,0
0,0,-17,-2027,-105,598,-33,2,127,0,0,0,0,0,0,0,0,0,0,0
0,0,-24,-2033,-110,597,-32,2,109,0,0,0,0,0,0,0,0,0,0,0
0,0,-16,-2028,-100,596,-30,3,134,0,0,0,0,0,0,0,0,0,0,0
0,0,-23,-2033,-106,595,-32,3,113,0,0,0,0,0,0,0,0,0,0,0
0,0,-18,-2025,-115,597,-33,3,118,0,0,0,0,0,0,0,0,0,0,0
0,0,-11,-2029,-101,597,-33,3,135,0,0,0,0,0,0,0,0,0,0,0
0,0,-22,-2036,-111,595,-33,5,107,0,0,0,0,0,0,0,0,0,0,0
0,0,-25,-2032,-110,596,-35,2,105,0,0,0,0,0,0,0,0,0,0,0
0,0,-17,-2031,-102,597,-33,2,125,0,0,0,0,0,0,0,0,0,0,0
0,0,-26,-2035,-103,596,-31,3,113,0,0,0,0,0,0,0,0,0,0,0
0,0,-30,-2021,-110,597,-33,3,115,0,0,0,0,0,0,0,0,0,0,0
0,0,-21,-2025,-103,596,-33,2,125,0,0,0,0,0,0,0,0,0,0,0
0,0,-24,-2029,-108,597,-35,3,113,0,0,0,0,0,0,0,0,0,0,0
0,0,-20,-2032,-110,598,-34,3,114,0,0,0,0,0,0,0,0,0,0,0
0,0,-22,-2035,-111,596,-34,3,106,0,0,0,0,0,0,0,0,0,0,0
0,0,-19,-2034,-98,597,-34,4,125,0,0,0,0,0,0,0,0,0,0,0
0,0,-20,-2031,-109,597,-34,4,116,0,0,0,0,0,0,0,0,0,0,0
0,0,-18,-2028,-100,597,-34,3,129,0,0,0,0,0,0,0,0,0,0,0
0,0,-15,-2029,-99,597,-34,4,133,0,0,0,0,0,0,0,0,0,0,0
0,0,-15,-2024,-105,597,-32,5,135,0,0,0,0,0,0,0,0,0,0,0
0,0,-21,-2033,-105,596,-35,3,114,0,0,0,0,0,0,0,0,0,0,0
0,0,-23,-2032,-105,595,-32,3,115,0,0,0,0,0,0,0,0,0,0,0
0,0,-18,-2030,-107,596,-30,2,122,0,0,0,0,0,0,0,0,0,0,0
0,0,-21,-2029,-111,596,-33,2,113,0,0,0,0,0,0,0,0,0,0,0
0,0,-27,-2029,-107,596,-33,3,112,0,0,0,0,0,0,0,0,0,0,0
0,0,-13,-2026,-115,595,-34,3,119,0,0,0,0,0,0,0,0,0,0,0
0,0,-14,-2026,-114,595,-32,3,121,0,0,0,0,0,0,0,0,0,0,0
0,0,-20,-2029,-107,597,-33,2,119,0,0,0,0,0,0,0,0,0,0,0
0,0,-17,-2040,-110,595,-32,4,109,0,0,0,0,0,0,0,0,0,0,0
0,0,-13,-2037,-112,598,-31,4,118,0,0,0,0,0,0,0,0,0,0,0
0,0,-19,-2034,-105,595,-33,2,115,0,0,0,0,0,0,0,0,0,0,0
0,0,-21,-2038,-104,596,-34,3,111,0,0,0,0,0,0,0,0,0,0,0
0,0,-17,-2027,-108,597,-35,2,121,0,0,0,0,0,0,0,0,0,0,0
0,0,-21,-2030,-115,595,-33,4,109,0,0,0,0,0,0,0,0,0,0,0
0,0,-19,-2034,-115,594,-32,3,106,0,0,0,0,0,0,0,0,0,0,0
0,0,-23,-2032,-99,595,-33,3,120,0,0,0,0,0,0,0,0,0,0,0
0,0,-17,-2035,-112,596,-35,2,108,0,0,0,0,0,0,0,0,0,0,0
0,0,-23,-2039,-108,595,-34,2,102,0,0,0,0,0,0,0,0,0,0,0
0,0,-19,-2026,-110,597,-34,4,121,0,0,0,0,0,0,0,0,0,0,0
0,0,-22,-2034,-100,596,-33,3,119,0,0,0,0,0,0,0,0,0,0,0
0,0,-26,-2033,-105,596,-32,5,114,0,0,0,0,0,0,0,0,0,0,0
0,0,-16,-2033,-117,594,-31,4,110,0,0,0,0,0,0,0,0,0,0,0
0,0,-25,-2033,-92,595,-31,2,125,0,0,0,0,0,0,0,0,0,0,0
0,0,-21,-2035,-101,595,-34,2,115,0,0,0,0,0,0,0,0,0,0,0
0,0,-26,-2036,-109,596,-34,2,102,0,0,0,0,0,0,0,0,0,0,0
0,0,-14,-2038,-102,598,-34,3,122,0,0,0,0,0,0,0,0,0,0,0
0,0,-20,-2038,-118,596,-34,4,99,0,0,0,0,0,0,0,0,0,0,0
0,0,-20,-2030,-101,597,-33,4,126,0,0,0,0,0,0,0,0,0,0,0
0,0,-13,-2034,-107,596,-32,4,123,0,0,0,0,0,0,0,0,0,0,0
0,0,-25,-2035,-106,595,-33,4,109,0,0,0,0,0,0,0,0,0,0,0
0,0,-18,-2030,-116,597,-32,3,113,0,0,0,0,0,0,0,0,0,0,0
0,0,-16,-2021,-111,597,-34,2,126,0,0,0,0,0,0,0,0,0,0,0
0,0,-28,-2035,-107,594,-34,2,101,0,0,0,0,0,0,0,0,0,0,0
0,0,-27,-2034,-91,595,-34,3,121,0,0,0,0,0,0,0,0,0,0,0
0,0,-24,-2028,-106,597,-34,4,118,0,0,0,0,0,0,0,0,0,0,0
0,0,-23,-2035,-103,597,-33,2,114,0,0,0,0,0,0,0,0,0,0,0
0,0,-19,-2029,-110,597,-33,2,117,0,0,0,0,0,0,0,0,0,0,0
0,0,-23,-2035,-108,595,-33,2,107,0,0,0,0,0,0,0,0,0,0,0
0,0,-21,-2037,-111,596,-34,3,105,0,0,0,0,0,0,0,0,0,0,0
0,0,-19,-2033,-100,597,-33,4,125,0,0,0,0,0,0,0,0,0,0,0
0,0,-19,-2035,-112,596,-33,3,109,0,0,0,0,0,0,0,0,0,0,0
0,0,-24,-2029,-99,596,-34,2,121,0,0,0,0,0,0,0,0,0,0,0
0,0,-18,-2029,-100,596,-33,2,127,0,0,0,0,0,0,0,0,0,0,0
0,0,-15,-2031,-110,597,-34,3,119,0,0,0,0,0,0,0,0,0,0,0
0,0,-28,-2041,-111,597,-31,4,99,0,0,0,0,0,0,0,0,0,0,0
0,0,-20,-2036,-95,594,-33,2,121,0,0,0,0,0,0,0,0,0,0,0
0,0,-10,-2028,-97,595,-33,5,141,0,0,0,0,0,0,0,0,0,0,0
0,0,-25,-2037,-104,596,-32,2,109,0,0,0,0,0,0,0,0,0,0,0
0,0,-20,-2038,-111,595,-32,3,106,0,0,0,0,0,0,0,0,0,0,0
0,0,-16,-2031,-108,596,-33,3,120,0,0,0,0,0,0,0,0,0,0,0
0,0,-14,-2025,-103,596,-32,2,133,0,0,0,0,0,0,0,0,0,0,0
0,0,-15,-2029,-104,595,-33,1,124,0,0,0,0,0,0,0,0,0,0,0
0,0,-20,-2033,-116,596,-34,3,105,0,0,0,0,0,0,0,0,0,0,0
0,0,-20,-2033,-108,597,-34,2,113,0,0,0,0,0,0,0,0,0,0,0
0,0,-22,-2037,-98,595,-34,3,116,0,0,0,0,0,0,0,0,0,0,0
0,0,-22,-2034,-111,595,-32,3,108,0,0,0,0,0,0,0,0,0,0,0
0,0,-17,-2034,-106,597,-33,3,119,0,0,0,0,0,0,0,0,0,0,0
0,0,-13,-2026,-108,597,-33,4,130,0,0,0,0,0,0,0,0,0,0,0
0,0,-17,-2027,-109,594,-33,3,120,0,0,0,0,0,0,0,0,0,0,0
0,0,-21,-2032,-109,598,-33,3,115,0,0,0,0,0,0,0,0,0,0,0
0,0,-14,-2033,-101,596,-33,1,125,0,0,0,0,0,0,0,0,0,0,0
0,0,-20,-2030,-108,596,-34,1,114,0,0,0,0,0,0,0,0,0,0,0
0,0,-19,-2032,-92,599,-32,3,136,0,0,0,0,0,0,0,0,0,0,0
0,0,-26,-2028,-115,597,-33,4,108,0,0,0,0,0,0,0,0,0,0,0
0,0,-15,-2040,-101,596,-33,2,118,0,0,0,0,0,0,0,0,0,0,0
0,0,-18,-2032,-109,596,-32,4,118,0,0,0,0,0,0,0,0,0,0,0
0,0,-23,-2028,-107,597,-34,4,118,0,0,0,0,0,0,0,0,0,0,0
0,0,-22,-2031,-105,597,-34,5,119,0,0,0,0,0,0,0,0,0,0,0
0,0,-16,-2027,-97,596,-35,4,134,0,0,0,0,0,0,0,0,0,0,0
0,0,-16,-2030,-106,594,-32,4,123,0,0,0,0,0,0,0,0,0,0,0
0,0,-13,-2026,-111,598,-34,2,125,0,0,0,0,0,0,0,0,0,0,0
0,0,-16,-2032,-108,599,-34,3,121,0,0,0,0,0,0,0,0,0,0,0
0,0,-20,-2037,-102,596,-32,4,118,0,0,0,0,0,0,0,0,0,0,0
0,0,-19,-2031,-105,597,-33,4,122,0,0,0,0,0,0,0,0,0,0,0
0,0,-19,-2037,-108,597,-34,2,110,0,0,0,0,0,0,0,0,0,0,0
0,0,-14,-2035,-103,596,-32,6,127,0,0,0,0,0,0,0,0,0,0,0
0,0,-28,-2036,-108,596,-33,5,105,0,0,0,0,0,0,0,0,0,0,0
0,0,-25,-2027,-114,596,-33,4,110,0,0,0,0,0,0,0,0,0,0,0
0,0,-19,-2033,-110,596,-32,2,113,0,0,0,0,0,0,0,0,0,0,0
0,0,-22,-2033,-105,597,-33,3,116,0,0,0,0,0,0,0,0,0,0,0
0,0,-21,-2033,-104,597,-33,3,118,0,0,0,0,0,0,0,0,0,0,0
0,0,-16,-2029,-107,596,-32,2,123,0,0,0,0,0,0,0,0,0,0,0
0,0,-19,-2032,-110,596,-34,1,111,0,0,0,0,0,0,0,0,0,0,0
0,0,-19,-2025,-103,596,-33,4,129,0,0,0,0,0,0,0,0,0,0,0
0,0,-25,-2026,-113,596,-32,2,111,0,0,0,0,0,0,0,0,0,0,0
0,0,-24,-2034,-113,597,-33,3,105,0,0,0,0,0,0,0,0,0,0,0
0,0,-22,-2041,-104,597,-33,3,109,0,0,0,0,0,0,0,0,0,0,0
0,0,-19,-2034,-108,596,-33,3,114,0,0,0,0,0,0,0,0,0,0,0
0,0,-23,-2035,-94,596,-33,4,124,0,0,0,0,0,0,0,0,0,0,0
0,0,-20,-2032,-103,595,-34,2,117,0,0,0,0,0,0,0,0,0,0,0
0,0,-27,-2036,-112,595,-34,5,100,0,0,0,0,0,0,0,0,0,0,0
0,0,-16,-2033,-115,595,-34,5,111,0,0,0,0,0,0,0,0,0,0,0
0,0,-21,-2031,-106,596,-32,2,117,0,0,0,0,0,0,0,0,0,0,0
0,0,-17,-2038,-111,597,-33,3,110,0,0,0,0,0,0,0,0,0,0,0
0,0,-18,-2036,-113,596,-33,3,108,0,0,0,0,0,0,0,0,0,0,0
0,0,-18,-2035,-113,597,-34,3,109,0,0,0,0,0,0,0,0,0,0,0
0,0,-21,-2026,-113,596,-32,3,116,0,0,0,0,0,0,0,0,0,0,0
0,0,-14,-2032,-106,594,-33,4,122,0,0,0,0,0,0,0,0,0,0,0
0,0,-25,-2035,-114,596,-33,3,101,0,0,0,0,0,0,0,0,0,0,0
0,0,-27,-2033,-109,595,-32,3,106,0,0,0,0,0,0,0,0,0,0,0
0,0,-21,-2026,-103,597,-33,1,124,0,0,0,0,0,0,0,0,0,0,0
0,0,-16,-2026,-99,598,-31,3,138,0,0,0,0,0,0,0,0,0,0,0
0,0,-23,-2032,-102,597,-31,4,122,0,0,0,0,0,0,0,0,0,0,0
0,0,-24,-2033,-109,596,-31,3,111,0,0,0,0,0,0,0,0,0,0,0
0,0,-24,-2039,-103,595,-31,1,108,0,0,0,0,0,0,0,0,0,0,0
0,0,-15,-2026,-105,597,-32,3,131,0,0,0,0,0,0,0,0,0,0,0
0,0,-19,-2031,-113,596,-31,2,113,0,0,0,0,0,0,0,0,0,0,0
0,0,-18,-2033,-104,595,-32,3,120,0,0,0,0,0,0,0,0,0,0,0
0,0,-21,-2034,-119,597,-32,3,103,0,0,0,0,0,0,0,0,0,0,0
0,0,-26,-2031,-98,596,-34,3,119,0,0,0,0,0,0,0,0,0,0,0
0,0,-23,-2036,-99,596,-33,1,115,0,0,0,0,0,0,0,0,0,0,0
0,0,-20,-2027,-108,596,-32,1,119,0,0,0,0,0,0,0,0,0,0,0
0,0,-22,-2031,-103,595,-32,2,118,0,0,0,0,0,0,0,0,0,0,0
0,0,-18,-2038,-104,597,-32,3,117,0,0,0,0,0,0,0,0,0,0,0
0,0,-22,-2036,-100,596,-31,4,120,0,0,0,0,0,0,0,0,0,0,0
0,0,-21,-2037,-116,598,-34,5,104,0,0,0,0,0,0,0,0,0,0,0
0,0,-21,-2034,-105,597,-33,4,117,0,0,0,0,0,0,0,0,0,0,0
0,0,-12,-2032,-115,596,-35,2,113,0,0,0,0,0,0,0,0,0,0,0
0,0,-11,-2034,-110,597,-32,2,121,0,0,0,0,0,0,0,0,0,0,0
0,0,-21,-2030,-108,595,-34,2,113,0,0,0,0,0,0,0,0,0,0,0
0,0,-26,-2031,-111,597,-34,2,106,0,0,0,0,0,0,0,0,0,0,0
0,0,-20,-2031,-114,597,-33,3,111,0,0,0,0,0,0,0,0,0,0,0
0,0,-23,-2039,-94,599,-34,2,120,0,0,0,0,0,0,0,0,0,0,0
0,0,-20,-2034,-101,596,-34,3,119,0,0,0,0,0,0,0,0,0,0,0
0,0,-16,-2028,-101,597,-33,1,129,0,0,0,0,0,0,0,0,0,0,0
0,0,-25,-2031,-98,597,-33,2,121,0,0,0,0,0,0,0,0,0,0,0
0,0,-17,-2026,-106,596,-33,5,128,0,0,0,0,0,0,0,0,0,0,0
0,0,-18,-2027,-94,597,-34,4,137,0,0,0,0,0,0,0,0,0,0,0
0,0,-15,-2031,-108,596,-34,3,120,0,0,0,0,0,0,0,0,0,0,0
0,0,-16,-2032,-105,596,-34,3,121,0,0,0,0,0,0,0,0,0,0,0
0,0,-12,-2040,-104,597,-34,3,119,0,0,0,0,0,0,0,0,0,0,0
0,0,-22,-2036,-100,596,-33,3,117,0,0,0,0,0,0,0,0,0,0,0
0,0,-21,-2031,-111,594,-31,3,112,0,0,0,0,0,0,0,0,0,0,0
0,0,-27,-2028,-112,598,-33,4,111,0,0,0,0,0,0,0,0,0,0,0
0,0,-19,-2030,-96,595,-32,4,131,0,0,0,0,0,0,0,0,0,0,0
0,0,-22,-2033,-108,596,-32,4,114,0,0,0,0,0,0,0,0,0,0,0
0,0,-19,-2031,-115,596,-31,4,113,0,0,0,0,0,0,0,0,0,0,0
0,0,-20,-2036,-103,595,-34,3,114,0,0,0,0,0,0,0,0,0,0,0
0,0,-15,-2031,-102,596,-33,2,126,0,0,0,0,0,0,0,0,0,0,0
0,0,-16,-2037,-101,598,-34,3,122,0,0,0,0,0,0,0,0,0,0,0
0,0,-21,-2043,-107,598,-34,4,106,0,0,0,0,0,0,0,0,0,0,0
0,0,-24,-2030,-96,596,-33,3,125,0,0,0,0,0,0,0,0,0,0,0
0,0,-23,-2036,-100,597,-33,4,118,0,0,0,0,0,0,0,0,0,0,0
0,0,-17,-2031,-108,595,-33,2,117,0,0,0,0,0,0,0,0,0,0,0
0,0,-25,-2029,-109,597,-33,3,113,0,0,0,0,0,0,0,0,0,0,0
0,0,-18,-2037,-104,596,-33,2,115,0,0,0,0,0,0,0,0,0,0,0
0,0,-22,-2031,-96,596,-32,3,127,0,0,0,0,0,0,0,0,0,0,0
0,0,-15,-2032,-89,597,-33,4,141,0,0,0,0,0,0,0,0,0,0,0
0,0,-19,-2040,-106,597,-34,4,111,0,0,0,0,0,0,0,0,0,0,0
0,0,-21,-2037,-107,594,-34,2,106,0,0,0,0,0,0,0,0,0,0,0
0,0,-22,-2035,-117,595,-33,4,101,0,0,0,0,0,0,0,0,0,0,0
0,0,-22,-2032,-105,596,-32,3,117,0,0,0,0,0,0,0,0,0,0,0
0,0,-29,-2034,-101,597,-33,3,112,0,0,0,0,0,0,0,0,0,0,0
0,0,-23,-2025,-111,595,-33,4,116,0,0,0,0,0,0,0,0,0,0,0
0,0,-20,-2029,-111,595,-34,1,111,0,0,0,0,0,0,0,0,0,0,0
0,0,-26,-2026,-112,597,-32,2,112,0,0,0,0,0,0,0,0,0,0,0
0,0,-23,-2035,-105,598,-32,2,114,0,0,0,0,0,0,0,0,0,0,0
0,0,-12,-2030,-108,595,-34,3,123,0,0,0,0,0,0,0,0,0,0,0
0,0,-17,-2035,-104,596,-33,3,119,0,0,0,0,0,0,0,0,0,0,0
0,0,-22,-2038,-105,596,-34,3,109,0,0,0,0,0,0,0,0,0,0,0
0,0,-23,-2034,-97,596,-33,3,121,0,0,0,0,0,0,0,0,0,0,0
0,0,-24,-2031,-110,594,-33,2,107,0,0,0,0,0,0,0,0,0,0,0
0,0,-27,-2035,-113,596,-34,3,99,0,0,0,0,0,0,0,0,0,0,0
0,0,-19,-2034,-106,595,-33,2,114,0,0,0,0,0,0,0,0,0,0,0
0,0,-18,-2034,-106,597,-34,3,117,0,0,0,0,0,0,0,0,0,0,0
0,0,-21,-2033,-95,597,-32,2,127,0,0,0,0,0,0,0,0,0,0,0
0,0,-22,-2029,-108,596,-34,3,115,0,0,0,0,0,0,0,0,0,0,0
0,0,-19,-2032,-97,596,-33,2,126,0,0,0,0,0,0,0,0,0,0,0
0,0,-23,-2039,-94,596,-32,4,121,0,0,0,0,0,0,0,0,0,0,0
0,0,-17,-2038,-96,596,-33,3,124,0,0,0,0,0,0,0,0,0,0,0
0,0,-11,-2028,-93,596,-35,3,141,0,0,0,0,0,0,0,0,0,0,0
0,0,-17,-2029,-102,596,-33,3,127,0,0,0,0,0,0,0,0,0,0,0
0,0,-27,-2029,-109,596,-34,4,110,0,0,0,0,0,0,0,0,0,0,0
0,0,-21,-2029,-109,597,-32,1,116,0,0,0,0,0,0,0,0,0,0,0
0,0,-16,-2028,-106,597,-33,1,124,0,0,0,0,0,0,0,0,0,0,0
0,0,-26,-2037,-110,595,-30,3,104,0,0,0,0,0,0,0,0,0,0,0
0,0,-21,-2037,-95,595,-32,3,122,0,0,0,0,0,0,0,0,0,0,0
0,0,-26,-2034,-101,595,-34,3,112,0,0,0,0,0,0,0,0,0,0,0
0,0,-24,-2034,-104,595,-33,3,112,0,0,0,0,0,0,0,0,0,0,0
0,0,-16,-2033,-105,596,-32,2,121,0,0,0,0,0,0,0,0,0,0,0
0,0,-25,-2024,-108,595,-33,4,118,0,0,0,0,0,0,0,0,0,0,0
0,0,-21,-2032,-114,597,-32,4,111,0,0,0,0,0,0,0,0,0,0,0
0,0,-20,-2040,-105,596,-34,3,109,0,0,0,0,0,0,0,0,0,0,0
0,0,-18,-2038,-103,598,-33,3,118,0,0,0,0,0,0,0,0,0,0,0
0,0,-16,-2032,-112,595,-33,4,115,0,0,0,0,0,0,0,0,0,0,0
0,0,-26,-2033,-113,594,-31,5,105,0,0,0,0,0,0,0,0,0,0,0
0,0,-24,-2033,-121,594,-34,2,93,0,0,0,0,0,0,0,0,0,0,0
0,0,-23,-2033,-108,595,-32,3,111,0,0,0,0,0,0,0,0,0,0,0
0,0,-18,-2034,-110,596,-33,3,113,0,0,0,0,0,0,0,0,0,0,0
0,0,-25,-2034,-115,595,-33,2,99,0,0,0,0,0,0,0,0,0,0,0
0,0,-23,-2034,-101,595,-32,2,116,0,0,0,0,0,0,0,0,0,0,0
0,0,-17,-2036,-103,595,-32,5,121,0,0,0,0,0,0,0,0,0,0,0
0,0,-18,-2035,-109,595,-31,3,114,0,0,0,0,0,0,0,0,0,0,0
0,0,-18,-2033,-104,597,-33,4,122,0,0,0,0,0,0,0,0,0,0,0
0,0,-22,-2035,-109,594,-31,3,109,0,0,0,0,0,0,0,0,0,0,0
0,0,-27,-2033,-103,595,-33,3,111,0,0,0,0,0,0,0,0,0,0,0
0,0,-16,-2033,-101,596,-31,3,127,0,0,0,0,0,0,0,0,0,0,0
0,0,-19,-2035,-96,596,-32,1,124,0,0,0,0,0,0,0,0,0,0,0
0,0,-18,-2034,-93,597,-32,5,134,0,0,0,0,0,0,0,0,0,0,0
0,0,-23,-2034,-101,596,-32,3,118,0,0,0,0,0,0,0,0,0,0,0
0,0,-22,-2035,-104,598,-30,4,120,0,0,0,0,0,0,0,0,0,0,0
0,0,-22,-2027,-113,598,-34,4,115,0,0,0,0,0,0,0,0,0,0,0
0,0,-25,-2033,-109,596,-32,3,109,0,0,0,0,0,0,0,0,0,0,0
0,0,-20,-2030,-106,597,-33,3,120,0,0,0,0,0,0,0,0,0,0,0
0,0,-26,-2026,-111,598,-34,3,113,0,0,0,0,0,0,0,0,0,0,0
0,0,-21,-2028,-103,596,-34,2,121,0,0,0,0,0,0,0,0,0,0,0
0,0,-15,-2028,-111,595,-34,3,119,0,0,0,0,0,0,0,0,0,0,0
0,0,-17,-2029,-100,597,-34,5,131,0,0,0,0,0,0,0,0,0,0,0
0,0,-24,-2032,-104,596,-34,2,113,0,0,0,0,0,0,0,0,0,0,0
0,0,-18,-2036,-112,597,-32,2,110,0,0,0,0,0,0,0,0,0,0,0
0,0,-22,-2034,-109,597,-33,3,111,0,0,0,0,0,0,0,0,0,0,0
0,0,-18,-2031,-108,596,-32,3,119,0,0,0,0,0,0,0,0,0,0,0
0,0,-21,-2028,-107,596,-33,0,116,0,0,0,0,0,0,0,0,0,0,0
0,0,-18,-2029,-109,595,-33,3,118,0,0,0,0,0,0,0,0,0,0,0
0,0,-19,-2028,-112,594,-34,4,114,0,0,0,0,0,0,0,0,0,0,0
0,0,-16,-2033,-108,595,-32,3,118,0,0,0,0,0,0,0,0,0,0,0
0,0,-20,-2034,-111,595,-32,3,110,0,0,0,0,0,0,0,0,0,0,0
0,0,-24,-2037,-111,595,-34,5,103,0,0,0,0,0,0,0,0,0,0,0
0,0,-18,-2035,-99,597,-35,3,122,0,0,0,0,0,0,0,0,0,0,0
0,0,-23,-2028,-109,596,-33,2,114,0,0,0,0,0,0,0,0,0,0,0
0,0,-25,-2025,-105,595,-32,3,120,0,0,0,0,0,0,0,0,0,0,0
0,0,-25,-2030,-107,594,-34,3,110,0,0,0,0,0,0,0,0,0,0,0
0,0,-18,-2034,-107,595,-33,4,116,0,0,0,0,0,0,0,0,0,0,0
0,0,-25,-2031,-105,595,-34,3,112,0,0,0,0,0,0,0,0,0,0,0
0,0,-10,-2034,-103,595,-33,2,126,0,0,0,0,0,0,0,0,0,0,0
0,0,-22,-2028,-101,596,-34,4,124,0,0,0,0,0,0,0,0,0,0,0
0,0,-21,-2031,-102,595,-32,4,122,0,0,0,0,0,0,0,0,0,0,0
0,0,-27,-2032,-108,595,-34,4,107,0,0,0,0,0,0,0,0,0,0,0
0,0,-20,-2030,-101,594,-33,3,122,0,0,0,0,0,0,0,0,0,0,0
0,0,-17,-2030,-115,596,-32,3,114,0,0,0,0,0,0,0,0,0,0,0
0,0,-17,-2024,-112,597,-32,5,126,0,0,0,0,0,0,0,0,0,0,0
0,0,-11,-2036,-118,596,-32,5,113,0,0,0,0,0,0,0,0,0,0,0
0,0,-12,-2029,-110,596,-33,3,124,0,0,0,0,0,0,0,0,0,0,0
0,0,-18,-2031,-112,597,-34,2,113,0,0,0,0,0,0,0,0,0,0,0
0,0,-25,-2028,-103,597,-33,3,120,0,0,0,0,0,0,0,0,0,0,0
0,0,-21,-2034,-99,595,-33,2,119,0,0,0,0,0,0,0,0,0,0,0
0,0,-23,-2031,-112,597,-34,4,110,0,0,0,0,0,0,0,0,0,0,0
0,0,-16,-2035,-103,596,-33,6,124,0,0,0,0,0,0,0,0,0,0,0
0,0,-20,-2032,-99,596,-33,5,126,0,0,0,0,0,0,0,0,0,0,0
0,0,-22,-2036,-109,596,-32,2,108,0,0,0,0,0,0,0,0,0,0,0
0,0,-21,-2030,-107,596,-32,3,118,0,0,0,0,0,0,0,0,0,0,0
0,0,-20,-2029,-107,596,-33,3,119,0,0,0,0,0,0,0,0,0,0,0
0,0,-16,-2031,-108,596,-34,3,119,0,0,0,0,0,0,0,0,0,0,0
0,0,-21,-2034,-109,597,-33,3,112,0,0,0,0,0,0,0,0,0,0,0
0,0,-29,-2024,-116,597,-33,3,107,0,0,0,0,0,0,0,0,0,0,0
0,0,-16,-2031,-112,597,-33,4,118,0,0,0,0,0,0,0,0,0,0,0
0,0,-15,-2032,-119,598,-32,3,112,0,0,0,0,0,0,0,0,0,0,0
0,0,-21,-2035,-112,596,-32,3,108,0,0,0,0,0,0,0,0,0,0,0
0,0,-18,-2038,-98,598,-33,4,124,0,0,0,0,0,0,0,0,0,0,0
0,0,-15,-2026,-104,597,-33,2,130,0,0,0,0,0,0,0,0,0,0,0
0,0,-27,-2033,-109,596,-33,3,106,0,0,0,0,0,0,0,0,0,0,0
0,0,-24,-2024,-103,597,-32,2,125,0,0,0,0,0,0,0,0,0,0,0
0,0,-17,-2044,-109,596,-33,3,105,0,0,0,0,0,0,0,0,0,0,0
0,0,-21,-2026,-111,597,-34,3,117,0,0,0,0,0,0,0,0,0,0,0
0,0,-22,-2032,-117,596,-33,2,103,0,0,0,0,0,0,0,0,0,0,0
0,0,-22,-2029,-118,597,-32,3,108,0,0,0,0,0,0,0,0,0,0,0
0,0,-13,-2033,-103,597,-32,4,129,0,0,0,0,0,0,0,0,0,0,0
0,0,-22,-2038,-98,597,-34,2,116,0,0,0,0,0,0,0,0,0,0,0
0,0,-22,-2032,-106,595,-34,4,114,0,0,0,0,0,0,0,0,0,0,0
0,0,-14,-2037,-120,596,-34,2,102,0,0,0,0,0,0,0,0,0,0,0
0,0,-22,-2034,-113,596,-34,2,104,0,0,0,0,0,0,0,0,0,0,0
0,0,-28,-2033,-104,597,-33,3,111,0,0,0,0,0,0,0,0,0,0,0
0,0,-29,-2026,-110,598,-32,5,115,0,0,0,0,0,0,0,0,0,0,0
0,0,-24,-2034,-99,598,-32,4,122,0,0,0,0,0,0,0,0,0,0,0
0,0,-20,-2027,-103,596,-32,3,126,0,0,0,0,0,0,0,0,0,0,0
0,0,-25,-2029,-103,597,-33,3,119,0,0,0,0,0,0,0,0,0,0,0
0,0,-15,-2017,-93,597,-35,3,149,0,0,0,0,0,0,0,0,0,0,0
0,0,-20,-2025,-115,595,-33,3,114,0,0,0,0,0,0,0,0,0,0,0
0,0,-25,-2029,-102,597,-33,3,120,0,0,0,0,0,0,0,0,0,0,0
0,0,-17,-2029,-109,596,-34,4,120,0,0,0,0,0,0,0,0,0,0,0
0,0,-12,-2031,-113,594,-32,5,120,0,0,0,0,0,0,0,0,0,0,0
0,0,-10,-2029,-111,593,-33,4,123,0,0,0,0,0,0,0,0,0,0,0
0,0,-24,-2036,-112,596,-35,3,101,0,0,0,0,0,0,0,0,0,0,0
0,0,-21,-2029,-97,595,-33,3,127,0,0,0,0,0,0,0,0,0,0,0
0,0,-19,-2032,-96,594,-33,4,127,0,0,0,0,0,0,0,0,0,0,0
0,0,-20,-2027,-96,596,-34,5,133,0,0,0,0,0,0,0,0,0,0,0
0,0,-25,-2025,-105,596,-35,4,119,0,0,0,0,0,0,0,0,0,0,0
0,0,-17,-2031,-112,595,-34,3,113,0,0,0,0,0,0,0,0,0,0,0
0,0,-25,-2035,-107,596,-34,2,106,0,0,0,0,0,0,0,0,0,0,0
0,0,-26,-2039,-105,595,-34,3,103,0,0,0,0,0,0,0,0,0,0,0
0,0,-19,-2022,-108,597,-33,2,126,0,0,0,0,0,0,0,0,0,0,0
0,0,-15,-2025,-106,596,-33,3,129,0,0,0,0,0,0,0,0,0,0,0
0,0,-22,-2029,-110,596,-33,3,114,0,0,0,0,0,0,0,0,0,0,0
0,0,-26,-2033,-108,595,-34,3,106,0,0,0,0,0,0,0,0,0,0,0
0,0,-25,-2024,-98,595,-34,3,126,0,0,0,0,0,0,0,0,0,0,0
0,0,-21,-2030,-108,594,-33,3,114,0,0,0,0,0,0,0,0,0,0,0
0,0,-21,-2028,-119,596,-32,3,108,0,0,0,0,0,0,0,0,0,0,0
0,0,-18,-2035,-114,595,-34,3,106,0,0,0,0,0,0,0,0,0,0,0
0,0,-17,-2028,-100,595,-32,3,130,0,0,0,0,0,0,0,0,0,0,0
0,0,-15,-2036,-97,596,-31,4,130,0,0,0,0,0,0,0,0,0,0,0
0,0,-17,-2035,-107,597,-32,3,118,0,0,0,0,0,0,0,0,0,0,0
0,0,-18,-2033,-99,598,-33,2,126,0,0,0,0,0,0,0,0,0,0,0
0,0,-17,-2027,-96,596,-33,3,135,0,0,0,0,0,0,0,0,0,0,0
0,0,-21,-2037,-97,596,-33,2,119,0,0,0,0,0,0,0,0,0,0,0
0,0,-23,-2029,-106,598,-33,5,121,0,0,0,0,0,0,0,0,0,0,0
0,0,-18,-2034,-107,597,-33,3,117,0,0,0,0,0,0,0,0,0,0,0
0,0,-18,-2033,-112,598,-34,3,113,0,0,0,0,0,0,0,0,0,0,0
0,0,-17,-2031,-105,596,-34,4,122,0,0,0,0,0,0,0,0,0,0,0
0,0,-18,-2038,-97,595,-36,5,120,0,0,0,0,0,0,0,0,0,0,0
0,0,-19,-2033,-111,596,-32,1,111,0,0,0,0,0,0,0,0,0,0,0
0,0,-22,-2035,-103,595,-35,3,112,0,0,0,0,0,0,0,0,0,0,0
0,0,-23,-2033,-111,597,-31,3,111,0,0,0,0,0,0,0,0,0,0,0
0,0,-21,-2032,-94,598,-33,4,131,0,0,0,0,0,0,0,0,0,0,0
0,0,-21,-2035,-106,594,-33,3,111,0,0,0,0,0,0,0,0,0,0,0
0,0,-22,-2029,-106,594,-32,2,116,0,0,0,0,0,0,0,0,0,0,0
0,0,-18,-2036,-110,597,-33,2,111,0,0,0,0,0,0,0,0,0,0,0
0,0,-23,-2033,-107,596,-33,2,111,0,0,0,0,0,0,0,0,0,0,0
0,0,-19,-2027,-117,595,-31,3,113,0,0,0,0,0,0,0,0,0,0,0
0,0,-18,-2033,-107,596,-31,4,120,0,0,0,0,0,0,0,0,0,0,0
0,0,-22,-2033,-111,595,-33,5,110,0,0,0,0,0,0,0,0,0,0,0
0,0,-24,-2030,-112,595,-33,4,109,0,0,0,0,0,0,0,0,0,0,0
0,0,-19,-2040,-104,596,-32,3,113,0,0,0,0,0,0,0,0,0,0,0
0,0,-23,-2033,-111,597,-32,3,110,0,0,0,0,0,0,0,0,0,0,0
0,0,-16,-2028,-111,597,-33,3,121,0,0,0,0,0,0,0,0,0,0,0
0,0,-12,-2031,-106,596,-35,3,124,0,0,0,0,0,0,0,0,0,0,0
0,0,-22,-2034,-102,598,-33,3,119,0,0,0,0,0,0,0,0,0,0,0
0,0,-8,-2036,-111,597,-32,2,121,0,0,0,0,0,0,0,0,0,0,0
0,0,-18,-2033,-101,596,-32,3,124,0,0,0,0,0,0,0,0,0,0,0
0,0,-19,-2038,-104,597,-33,5,117,0,0,0,0,0,0,0,0,0,0,0
0,0,-25,-2042,-103,597,-34,2,104,0,0,0,0,0,0,0,0,0,0,0
0,0,-21,-2035,-103,596,-33,2,115,0,0,0,0,0,0,0,0,0,0,0
0,0,-19,-2030,-104,596,-32,4,124,0,0,0,0,0,0,0,0,0,0,0
0,0,-23,-2026,-114,597,-32,5,116,0,0,0,0,0,0,0,0,0,0,0
0,0,-22,-2029,-116,596,-31,3,110,0,0,0,0,0,0,0,0,0,0,0
0,0,-21,-2031,-100,595,-31,2,123,0,0,0,0,0,0,0,0,0,0,0
0,0,-14,-2033,-106,594,-33,3,120,0,0,0,0,0,0,0,0,0,0,0
0,0,-18,-2035,-105,596,-34,2,115,0,0,0,0,0,0,0,0,0,0,0
0,0,-18,-2029,-102,596,-34,4,126,0,0,0,0,0,0,0,0,0,0,0
0,0,-20,-2038,-97,595,-33,4,120,0,0,0,0,0,0,0,0,0,0,0
0,0,-22,-2033,-103,593,-32,5,117,0,0,0,0,0,0,0,0,0,0,0
0,0,-13,-2034,-117,596,-33,4,112,0,0,0,0,0,0,0,0,0,0,0
0,0,-26,-2027,-108,597,-32,4,117,0,0,0,0,0,0,0,0,0,0,0
0,0,-19,-2023,-98,595,-33,2,133,0,0,0,0,0,0,0,0,0,0,0
0,0,-19,-2037,-106,597,-34,4,114,0,0,0,0,0,0,0,0,0,0,0
0,0,-23,-2032,-105,597,-33,4,117,0,0,0,0,0,0,0,0,0,0,0
0,0,-23,-2033,-107,599,-34,3,114,0,0,0,0,0,0,0,0,0,0,0
0,0,-22,-2035,-99,595,-33,3,118,0,0,0,0,0,0,0,0,0,0,0
0,0,-29,-2033,-104,595,-32,4,110,0,0,0,0,0,0,0,0,0,0,0
0,0,-17,-2035,-104,597,-32,1,119,0,0,0,0,0,0,0,0,0,0,0
0,0,-22,-2030,-107,597,-33,3,117,0,0,0,0,0,0,0,0,0,0,0
0,0,-23,-2033,-116,597,-35,4,103,0,0,0,0,0,0,0,0,0,0,0
0,0,-28,-2031,-103,596,-32,4,115,0,0,0,0,0,0,0,0,0,0,0
0,0,-21,-2030,-103,596,-33,3,121,0,0,0,0,0,0,0,0,0,0,0
0,0,-23,-2033,-108,596,-33,5,113,0,0,0,0,0,0,0,0,0,0,0
0,0,-16,-2028,-107,595,-34,4,123,0,0,0,0,0,0,0,0,0,0,0
0,0,-14,-2029,-109,597,-33,3,124,0,0,0,0,0,0,0,0,0,0,0
0,0,-23,-2032,-110,597,-33,3,111,0,0,0,0,0,0,0,0,0,0,0
0,0,-24,-2038,-106,595,-33,2,105,0,0,0,0,0,0,0,0,0,0,0
0,0,-21,-2033,-101,596,-33,4,121,0,0,0,0,0,0,0,0,0,0,0
0,0,-22,-2033,-99,596,-34,3,120,0,0,0,0,0,0,0,0,0,0,0
0,0,-21,-2029,-106,594,-33,2,116,0,0,0,0,0,0,0,0,0,0,0
0,0,-22,-2024,-118,595,-33,4,111,0,0,0,0,0,0,0,0,0,0,0
0,0,-19,-2032,-103,597,-32,3,123,0,0,0,0,0,0,0,0,0,0,0
0,0,-17,-2036,-104,597,-32,4,121,0,0,0,0,0,0,0,0,0,0,0
0,0,-20,-2031,-99,595,-32,4,126,0,0,0,0,0,0,0,0,0,0,0
0,0,-13,-2028,-99,596,-34,2,133,0,0,0,0,0,0,0,0,0,0,0
0,0,-18,-2028,-108,597,-32,4,124,0,0,0,0,0,0,0,0,0,0,0
0,0,-19,-2039,-109,595,-34,3,106,0,0,0,0,0,0,0,0,0,0,0
0,0,-16,-2037,-106,597,-33,2,116,0,0,0,0,0,0,0,0,0,0,0
0,0,-23,-2025,-98,597,-33,3,130,0,0,0,0,0,0,0,0,0,0,0
0,0,-28,-2029,-105,596,-33,7,117,0,0,0,0,0,0,0,0,0,0,0
0,0,-18,-2034,-97,596,-33,2,125,0,0,0,0,0,0,0,0,0,0,0
0,0,-13,-2037,-116,596,-33,2,108,0,0,0,0,0,0,0,0,0,0,0
0,0,-15,-2034,-114,595,-35,4,110,0,0,0,0,0,0,0,0,0,0,0
0,0,-21,-2038,-112,595,-34,4,103,0,0,0,0,0,0,0,0,0,0,0
0,0,-23,-2036,-111,595,-33,6,107,0,0,0,0,0,0,0,0,0,0,0
0,0,-29,-2037,-111,597,-32,2,99,0,0,0,0,0,0,0,0,0,0,0
0,0,-25,-2040,-111,597,-32,2,100,0,0,0,0,0,0,0,0,0,0,0
0,0,-16,-2033,-107,596,-33,3,119,0,0,0,0,0,0,0,0,0,0,0
0,0,-23,-2036,-106,596,-33,3,110,0,0,0,0,0,0,0,0,0,0,0
0,0,-23,-2038,-102,594,-33,2,109,0,0,0,0,0,0,0,0,0,0,0
0,0,-17,-2029,-111,597,-34,2,117,0,0,0,0,0,0,0,0,0,0,0
0,0,-21,-2036,-117,597,-33,3,102,0,0,0,0,0,0,0,0,0,0,0
0,0,-19,-2033,-111,596,-33,3,112,0,0,0,0,0,0,0,0,0,0,0
0,0,-16,-2033,-107,596,-33,3,119,0,0,0,0,0,0,0,0,0,0,0
0,0,-26,-2035,-110,595,-33,1,101,0,0,0,0,0,0,0,0,0,0,0
0,0,-15,-2029,-112,595,-33,4,119,0,0,0,0,0,0,0,0,0,0,0
0,0,-18,-2034,-108,596,-32,2,115,0,0,0,0,0,0,0,0,0,0,0
0,0,-19,-2030,-99,596,-33,3,127,0,0,0,0,0,0,0,0,0,0,0
0,0,-19,-2028,-115,594,-32,3,112,0,0,0,0,0,0,0,0,0,0,0
0,0,-20,-2041,-109,596,-34,3,104,0,0,0,0,0,0,0,0,0,0,0
0,0,-19,-2034,-102,597,-32,3,122,0,0,0,0,0,0,0,0,0,0,0
0,0,-18,-2026,-95,595,-34,3,134,0,0,0,0,0,0,0,0,0,0,0
0,0,-20,-2031,-108,596,-34,3,115,0,0,0,0,0,0,0,0,0,0,0
0,0,-22,-2037,-107,595,-33,4,109,0,0,0,0,0,0,0,0,0,0,0
0,0,-24,-2029,-110,596,-32,3,113,0,0,0,0,0,0,0,0,0,0,0
0,0,-20,-2032,-104,596,-33,2,118,0,0,0,0,0,0,0,0,0,0,0
0,0,-10,-2036,-103,596,-33,4,127,0,0,0,0,0,0,0,0,0,0,0
0,0,-22,-2030,-108,596,-33,5,117,0,0,0,0,0,0,0,0,0,0,0
0,0,-18,-2032,-98,596,-34,3,126,0,0,0,0,0,0,0,0,0,0,0
0,0,-18,-2035,-111,597,-32,3,113,0,0,0,0,0,0,0,0,0,0,0
0,0,-17,-2033,-118,597,-33,4,109,0,0,0,0,0,0,0,0,0,0,0
0,0,-22,-2023,-100,596,-33,4,131,0,0,0,0,0,0,0,0,0,0,0
0,0,-22,-2027,-109,594,-34,2,113,0,0,0,0,0,0,0,0,0,0,0
0,0,-24,-2041,-94,594,-33,2,113,0,0,0,0,0,0,0,0,0,0,0
0,0,-16,-2034,-109,596,-32,3,117,0,0,0,0,0,0,0,0,0,0,0
0,0,-22,-2038,-101,596,-32,4,116,0,0,0,0,0,0,0,0,0,0,0
0,0,-19,-2034,-104,595,-34,2,115,0,0,0,0,0,0,0,0,0,0,0
0,0,-18,-2031,-100,596,-33,3,126,0,0,0,0,0,0,0,0,0,0,0
0,0,-9,-2035,-103,596,-32,4,130,0,0,0,0,0,0,0,0,0,0,0
0,0,-21,-2038,-100,597,-34,3,116,0,0,0,0,0,0,0,0,0,0,0
0,0,-16,-2037,-111,596,-32,4,113,0,0,0,0,0,0,0,0,0,0,0
0,0,-12,-2029,-113,596,-34,2,119,0,0,0,0,0,0,0,0,0,0,0
0,0,-16,-2029,-106,595,-33,3,123,0,0,0,0,0,0,0,0,0,0,0
0,0,-23,-2033,-98,593,-32,5,121,0,0,0,0,0,0,0,0,0,0,0
0,0,-22,-2030,-107,595,-33,3,115,0,0,0,0,0,0,0,0,0,0,0
0,0,-15,-2028,-107,595,-34,3,123,0,0,0,0,0,0,0,0,0,0,0
0,0,-16,-2036,-110,595,-33,4,113,0,0,0,0,0,0,0,0,0,0,0
0,0,-22,-2035,-104,595,-31,2,114,0,0,0,0,0,0,0,0,0,0,0
0,0,-10,-2032,-106,595,-35,2,123,0,0,0,0,0,0,0,0,0,0,0
0,0,-24,-2032,-110,597,-35,3,108,0,0,0,0,0,0,0,0,0,0,0
0,0,-17,-2025,-109,595,-32,2,123,0,0,0,0,0,0,0,0,0,0,0
0,0,-18,-2034,-106,594,-32,3,116,0,0,0,0,0,0,0,0,0,0,0
0,0,-24,-2030,-99,596,-33,3,122,0,0,0,0,0,0,0,0,0,0,0
0,0,-17,-2036,-99,596,-34,2,121,0,0,0,0,0,0,0,0,0,0,0
0,0,-22,-2029,-108,595,-32,3,116,0,0,0,0,0,0,0,0,0,0,0
0,0,-21,-2042,-102,596,-33,3,110,0,0,0,0,0,0,0,0,0,0,0
0,0,-15,-2041,-110,597,-33,3,110,0,0,0,0,0,0,0,0,0,0,0
0,0,-22,-2038,-106,597,-33,2,109,0,0,0,0,0,0,0,0,0,0,0
0,0,-20,-2034,-109,596,-33,3,112,0,0,0,0,0,0,0,0,0,0,0
0,0,-18,-2025,-114,596,-33,4,119,0,0,0,0,0,0,0,0,0,0,0
0,0,-16,-2024,-101,597,-33,2,134,0,0,0,0,0,0,0,0,0,0,0
0,0,-16,-2030,-111,594,-32,3,117,0,0,0,0,0,0,0,0,0,0,0
0,0,-25,-2030,-109,596,-33,2,110,0,0,0,0,0,0,0,0,0,0,0
0,0,-17,-2030,-105,595,-32,3,123,0,0,0,0,0,0,0,0,0,0,0
0,0,-20,-2034,-104,594,-33,3,115,0,0,0,0,0,0,0,0,0,0,0
0,0,-18,-2036,-105,596,-33,2,115,0,0,0,0,0,0,0,0,0,0,0
0,0,-14,-2031,-108,599,-31,3,127,0,0,0,0,0,0,0,0,0,0,0
0,0,-14,-2043,-104,596,-33,4,115,0,0,0,0,0,0,0,0,0,0,0
0,0,-18,-2035,-113,597,-33,3,110,0,0,0,0,0,0,0,0,0,0,0
0,0,-16,-2028,-97,595,-32,4,135,0,0,0,0,0,0,0,0,0,0,0
0,0,-18,-2032,-96,596,-33,3,129,0,0,0,0,0,0,0,0,0,0,0
0,0,-17,-2031,-102,596,-32,3,126,0,0,0,0,0,0,0,0,0,0,0
0,0,-21,-2039,-112,595,-34,3,101,0,0,0,0,0,0,0,0,0,0,0
0,0,-23,-2028,-105,595,-33,4,119,0,0,0,0,0,0,0,0,0,0,0
0,0,-15,-2033,-108,597,-32,4,122,0,0,0,0,0,0,0,0,0,0,0
0,0,-21,-2027,-95,599,-33,3,135,0,0,0,0,0,0,0,0,0,0,0
0,0,-20,-2037,-95,597,-34,2,122,0,0,0,0,0,0,0,0,0,0,0
0,0,-18,-2029,-109,595,-33,3,118,0,0,0,0,0,0,0,0,0,0,0
0,0,-23,-2027,-112,596,-33,4,114,0,0,0,0,0,0,0,0,0,0,0
0,0,-18,-2027,-122,597,-34,4,109,0,0,0,0,0,0,0,0,0,0,0
0,0,-19,-2036,-107,596,-33,2,112,0,0,0,0,0,0,0,0,0,0,0
0,0,-25,-2039,-101,595,-33,3,109,0,0,0,0,0,0,0,0,0,0,0
0,0,-23,-2032,-118,596,-35,1,98,0,0,0,0,0,0,0,0,0,0,0
0,0,-18,-2038,-117,596,-34,3,101,0,0,0,0,0,0,0,0,0,0,0
0,0,-23,-2032,-106,595,-33,4,114,0,0,0,0,0,0,0,0,0,0,0
0,0,-25,-2036,-104,596,-34,3,109,0,0,0,0,0,0,0,0,0,0,0
0,0,-15,-2032,-96,595,-33,3,131,0,0,0,0,0,0,0,0,0,0,0
0,0,-21,-2032,-110,595,-35,4,110,0,0,0,0,0,0,0,0,0,0,0
0,0,-26,-2037,-118,596,-32,4,96,0,0,0,0,0,0,0,0,0,0,0
0,0,-16,-2031,-113,596,-33,4,116,0,0,0,0,0,0,0,0,0,0,0
0,0,-19,-2032,-105,598,-33,3,121,0,0,0,0,0,0,0,0,0,0,0
0,0,-24,-2023,-105,597,-33,1,122,0,0,0,0,0,0,0,0,0,0,0
0,0,-18,-2030,-101,594,-32,3,125,0,0,0,0,0,0,0,0,0,0,0
0,0,-16,-2032,-109,596,-33,3,118,0,0,0,0,0,0,0,0,0,0,0
0,0,-13,-2034,-100,595,-34,4,127,0,0,0,0,0,0,0,0,0,0,0
0,0,-17,-2036,-103,594,-33,3,117,0,0,0,0,0,0,0,0,0,0,0
0,0,-16,-2028,-107,595,-34,2,121,0,0,0,0,0,0,0,0,0,0,0
0,0,-19,-2035,-104,595,-34,2,114,0,0,0,0,0,0,0,0,0,0,0
0,0,-23,-2027,-109,595,-33,2,114,0,0,0,0,0,0,0,0,0,0,0
0,0,-26,-2030,-111,595,-33,4,108,0,0,0,0,0,0,0,0,0,0,0
0,0,-21,-2031,-98,596,-33,4,126,0,0,0,0,0,0,0,0,0,0,0
0,0,-22,-2032,-101,596,-34,3,119,0,0,0,0,0,0,0,0,0,0,0
0,0,-18,-2034,-107,597,-34,3,116,0,0,0,0,0,0,0,0,0,0,0
0,0,-22,-2034,-107,596,-33,4,113,0,0,0,0,0,0,0,0,0,0,0
0,0,-21,-2034,-114,596,-32,4,108,0,0,0,0,0,0,0,0,0,0,0
0,0,-14,-2028,-109,597,-32,4,127,0,0,0,0,0,0,0,0,0,0,0
0,0,-13,-2031,-104,595,-33,3,126,0,0,0,0,0,0,0,0,0,0,0
0,0,-20,-2031,-113,597,-33,3,112,0,0,0,0,0,0,0,0,0,0,0
0,0,-23,-2032,-99,596,-33,3,121,0,0,0,0,0,0,0,0,0,0,0
0,0,-20,-2031,-90,596,-35,2,131,0,0,0,0,0,0,0,0,0,0,0
0,0,-22,-2031,-97,596,-34,3,124,0,0,0,0,0,0,0,0,0,0,0
0,0,-20,-2031,-106,595,-33,3,117,0,0,0,0,0,0,0,0,0,0,0
0,0,-19,-2033,-113,595,-32,4,111,0,0,0,0,0,0,0,0,0,0,0
0,0,-19,-2027,-111,596,-33,3,118,0,0,0,0,0,0,0,0,0,0,0
0,0,-23,-2026,-110,598,-32,1,117,0,0,0,0,0,0,0,0,0,0,0
0,0,-17,-2032,-97,596,-32,2,129,0,0,0,0,0,0,0,0,0,0,0
0,0,-17,-2036,-98,596,-32,4,126,0,0,0,0,0,0,0,0,0,0,0
0,0,-31,-2040,-109,596,-34,4,95,0,0,0,0,0,0,0,0,0,0,0
0,0,-23,-2042,-112,597,-32,4,101,0,0,0,0,0,0,0,0,0,0,0
0,0,-21,-2033,-115,595,-34,3,104,0,0,0,0,0,0,0,0,0,0,0
0,0,-20,-2036,-106,596,-34,2,111,0,0,0,0,0,0,0,0,0,0,0
0,0,-18,-2038,-103,593,-33,3,113,0,0,0,0,0,0,0,0,0,0,0
0,0,-21,-2030,-103,596,-35,4,120,0,0,0,0,0,0,0,0,0,0,0
0,0,-15,-2033,-101,596,-33,2,125,0,0,0,0,0,0,0,0,0,0,0
0,0,-19,-2025,-104,598,-35,4,128,0,0,0,0,0,0,0,0,0,0,0
0,0,-12,-2028,-105,597,-32,4,133,0,0,0,0,0,0,0,0,0,0,0
0,0,-16,-2034,-97,595,-32,3,128,0,0,0,0,0,0,0,0,0,0,0
0,0,-21,-2036,-110,595,-33,2,106,0,0,0,0,0,0,0,0,0,0,0
0,0,-19,-2030,-110,596,-32,3,117,0,0,0,0,0,0,0,0,0,0,0
0,0,-14,-2036,-115,594,-32,3,109,0,0,0,0,0,0,0,0,0,0,0
0,0,-24,-2035,-113,595,-32,3,103,0,0,0,0,0,0,0,0,0,0,0
0,0,-17,-2032,-99,595,-32,3,127,0,0,0,0,0,0,0,0,0,0,0
0,0,-11,-2035,-112,595,-33,2,115,0,0,0,0,0,0,0,0,0,0,0
0,0,-19,-2036,-105,595,-32,1,113,0,0,0,0,0,0,0,0,0,0,0
0,0,-13,-2026,-105,596,-34,3,130,0,0,0,0,0,0,0,0,0,0,0
0,0,-24,-2034,-104,596,-32,4,115,0,0,0,0,0,0,0,0,0,0,0
0,0,-25,-2029,-99,594,-34,4,120,0,0,0,0,0,0,0,0,0,0,0
0,0,-15,-2032,-106,594,-33,5,122,0,0,0,0,0,0,0,0,0,0,0
0,0,-16,-2031,-117,595,-34,3,109,0,0,0,0,0,0,0,0,0,0,0
0,0,-17,-2029,-102,594,-33,2,124,0,0,0,0,0,0,0,0,0,0,0
0,0,-18,-2030,-112,595,-32,3,115,0,0,0,0,0,0,0,0,0,0,0
0,0,-17,-2032,-109,597,-33,3,118,0,0,0,0,0,0,0,0,0,0,0
0,0,-22,-2030,-115,597,-34,4,109,0,0,0,0,0,0,0,0,0,0,0
0,0,-28,-2032,-118,594,-33,3,95,0,0,0,0,0,0,0,0,0,0,0
0,0,-21,-2033,-107,597,-35,3,113,0,0,0,0,0,0,0,0,0,0,0
0,0,-15,-2032,-103,596,-34,3,124,0,0,0,0,0,0,0,0,0,0,0
0,0,-20,-2031,-113,594,-34,3,108,0,0,0,0,0,0,0,0,0,0,0
0,0,-29,-2028,-118,596,-34,3,99,0,0,0,0,0,0,0,0,0,0,0
0,0,-17,-2032,-101,595,-33,4,125,0,0,0,0,0,0,0,0,0,0,0
0,0,-19,-2031,-113,597,-33,3,113,0,0,0,0,0,0,0,0,0,0,0
0,0,-23,-2028,-102,596,-34,4,122,0,0,0,0,0,0,0,0,0,0,0
0,0,-28,-2025,-107,597,-33,3,116,0,0,0,0,0,0,0,0,0,0,0
0,0,-21,-2031,-111,596,-33,1,110,0,0,0,0,0,0,0,0,0,0,0
0,0,-18,-2031,-112,597,-34,3,114,0,0,0,0,0,0,0,0,0,0,0
0,0,-14,-2039,-117,597,-33,5,108,0,0,0,0,0,0,0,0,0,0,0
0,0,-24,-2032,-105,597,-32,4,117,0,0,0,0,0,0,0,0,0,0,0
0,0,-29,-2033,-102,597,-32,4,114,0,0,0,0,0,0,0,0,0,0,0
0,0,-23,-2037,-102,597,-31,3,116,0,0,0,0,0,0,0,0,0,0,0
0,0,-16,-2026,-108,597,-33,3,126,0,0,0,0,0,0,0,0,0,0,0
0,0,-13,-2024,-100,595,-34,2,135,0,0,0,0,0,0,0,0,0,0,0
0,0,-15,-2026,-113,598,-32,2,123,0,0,0,0,0,0,0,0,0,0,0
0,0,-17,-2035,-101,597,-31,3,125,0,0,0,0,0,0,0,0,0,0,0
0,0,-17,-2037,-103,596,-33,4,119,0,0,0,0,0,0,0,0,0,0,0
0,0,-16,-2036,-110,595,-34,4,112,0,0,0,0,0,0,0,0,0,0,0
0,0,-22,-2038,-118,597,-33,4,99,0,0,0,0,0,0,0,0,0,0,0
0,0,-17,-2030,-109,596,-33,2,118,0,0,0,0,0,0,0,0,0,0,0
0,0,-24,-2027,-100,598,-34,3,125,0,0,0,0,0,0,0,0,0,0,0
0,0,-28,-2032,-121,597,-33,5,97,0,0,0,0,0,0,0,0,0,0,0
0,0,-25,-2034,-113,597,-33,3,104,0,0,0,0,0,0,0,0,0,0,0
0,0,-26,-2039,-98,593,-33,2,108,0,0,0,0,0,0,0,0,0,0,0
0,0,-14,-2028,-110,595,-34,3,121,0,0,0,0,0,0,0,0,0,0,0
0,0,-19,-2030,-105,596,-31,3,123,0,0,0,0,0,0,0,0,0,0,0
0,0,-23,-2032,-101,594,-33,4,118,0,0,0,0,0,0,0,0,0,0,0
0,0,-21,-2031,-101,596,-33,4,123,0,0,0,0,0,0,0,0,0,0,0
0,0,-14,-2033,-117,597,-34,3,111,0,0,0,0,0,0,0,0,0,0,0
0,0,-23,-2032,-100,595,-33,2,118,0,0,0,0,0,0,0,0,0,0,0
0,0,-16,-2031,-105,596,-34,2,121,0,0,0,0,0,0,0,0,0,0,0
0,0,-25,-2038,-106,596,-34,3,105,0,0,0,0,0,0,0,0,0,0,0
0,0,-24,-2035,-106,595,-33,2,108,0,0,0,0,0,0,0,0,0,0,0
0,0,-25,-2035,-104,596,-33,2,110,0,0,0,0,0,0,0,0,0,0,0
0,0,-15,-2027,-108,598,-31,4,130,0,0,0,0,0,0,0,0,0,0,0
0,0,-16,-2033,-111,596,-33,3,115,0,0,0,0,0,0,0,0,0,0,0
0,0,-19,-2031,-103,597,-34,2,121,0,0,0,0,0,0,0,0,0,0,0
0,0,-23,-2035,-104,598,-33,4,116,0,0,0,0,0,0,0,0,0,0,0
0,0,-17,-2038,-109,595,-34,2,108,0,0,0,0,0,0,0,0,0,0,0
0,0,-14,-2030,-107,595,-33,4,124,0,0,0,0,0,0,0,0,0,0,0
0,0,-15,-2042,-103,595,-33,3,114,0,0,0,0,0,0,0,0,0,0,0
0,0,-20,-2032,-94,594,-33,2,126,0,0,0,0,0,0,0,0,0,0,0
0,0,-12,-2035,-104,596,-33,3,124,0,0,0,0,0,0,0,0,0,0,0
0,0,-9,-2034,-106,596,-33,2,125,0,0,0,0,0,0,0,0,0,0,0
0,0,-22,-2031,-105,594,-34,4,115,0,0,0,0,0,0,0,0,0,0,0
0,0,-19,-2036,-109,598,-34,3,112,0,0,0,0,0,0,0,0,0,0,0
0,0,-16,-2031,-101,596,-33,3,127,0,0,0,0,0,0,0,0,0,0,0
0,0,-20,-2029,-112,595,-32,4,115,0,0,0,0,0,0,0,0,0,0,0
0,0,-24,-2031,-105,594,-32,3,114,0,0,0,0,0,0,0,0,0,0,0
0,0,-20,-2034,-110,596,-32,3,112,0,0,0,0,0,0,0,0,0,0,0
0,0,-19,-2032,-98,598,-32,1,127,0,0,0,0,0,0,0,0,0,0,0
0,0,-16,-2033,-107,596,-32,1,118,0,0,0,0,0,0,0,0,0,0,0
0,0,-19,-2038,-109,596,-33,3,109,0,0,0,0,0,0,0,0,0,0,0
0,0,-17,-2033,-112,595,-34,2,110,0,0,0,0,0,0,0,0,0,0,0
0,0,-19,-2029,-112,597,-34,3,115,0,0,0,0,0,0,0,0,0,0,0
0,0,-25,-2034,-91,598,-34,3,126,0,0,0,0,0,0,0,0,0,0,0
0,0,-18,-2036,-96,597,-32,2,126,0,0,0,0,0,0,0,0,0,0,0
0,0,-18,-2031,-104,598,-33,3,124,0,0,0,0,0,0,0,0,0,0,0
0,0,-20,-2036,-106,596,-32,4,115,0,0,0,0,0,0,0,0,0,0,0
0,0,-22,-2028,-112,597,-31,2,115,0,0,0,0,0,0,0,0,0,0,0
0,0,-11,-2031,-110,598,-35,3,123,0,0,0,0,0,0,0,0,0,0,0
0,0,-25,-2028,-107,597,-34,3,115,0,0,0,0,0,0,0,0,0,0,0
0,0,-24,-2035,-116,598,-35,2,99,0,0,0,0,0,0,0,0,0,0,0
0,0,-23,-2034,-102,598,-33,5,120,0,0,0,0,0,0,0,0,0,0,0
0,0,-16,-2033,-102,596,-33,3,124,0,0,0,0,0,0,0,0,0,0,0
0,0,-17,-2024,-108,596,-33,4,127,0,0,0,0,0,0,0,0,0,0,0
0,0,-18,-2026,-91,598,-33,4,143,0,0,0,0,0,0,0,0,0,0,0
0,0,-16,-2038,-89,595,-34,5,132,0,0,0,0,0,0,0,0,0,0,0
0,0,-17,-2036,-108,597,-34,4,115,0,0,0,0,0,0,0,0,0,0,0
0,0,-19,-2041,-118,597,-33,3,98,0,0,0,0,0,0,0,0,0,0,0
0,0,-22,-2043,-112,596,-34,3,97,0,0,0,0,0,0,0,0,0,0,0
0,0,-15,-2035,-114,595,-35,4,109,0,0,0,0,0,0,0,0,0,0,0
0,0,-22,-2034,-120,598,-32,4,103,0,0,0,0,0,0,0,0,0,0,0
0,0,-23,-2034,-115,595,-34,5,103,0,0,0,0,0,0,0,0,0,0,0
0,0,-18,-2033,-103,595,-32,2,120,0,0,0,0,0,0,0,0,0,0,0
0,0,-15,-2040,-94,595,-32,4,127,0,0,0,0,0,0,0,0,0,0,0
0,0,-21,-2028,-106,596,-33,2,119,0,0,0,0,0,0,0,0,0,0,0
0,0,-24,-2034,-107,596,-33,3,110,0,0,0,0,0,0,0,0,0,0,0
0,0,-20,-2031,-100,594,-34,2,120,0,0,0,0,0,0,0,0,0,0,0
0,0,-17,-2038,-106,596,-32,4,116,0,0,0,0,0,0,0,0,0,0,0
0,0,-16,-2039,-110,595,-32,4,111,0,0,0,0,0,0,0,0,0,0,0
0,0,-16,-2037,-114,596,-33,3,108,0,0,0,0,0,0,0,0,0,0,0
0,0,-21,-2030,-103,596,-32,2,121,0,0,0,0,0,0,0,0,0,0,0
0,0,-27,-2024,-110,596,-31,2,115,0,0,0,0,0,0,0,0,0,0,0
0,0,-26,-2039,-100,597,-33,4,112,0,0,0,0,0,0,0,0,0,0,0
0,0,-14,-2039,-119,597,-33,4,105,0,0,0,0,0,0,0,0,0,0,0
0,0,-22,-2031,-103,597,-33,2,119,0,0,0,0,0,0,0,0,0,0,0
0,0,-19,-2029,-115,597,-34,3,112,0,0,0,0,0,0,0,0,0,0,0
0,0,-16,-2030,-109,596,-35,2,117,0,0,0,0,0,0,0,0,0,0,0
0,0,-18,-2027,-116,595,-35,2,110,0,0,0,0,0,0,0,0,0,0,0
0,0,-25,-2030,-107,597,-33,3,114,0,0,0,0,0,0,0,0,0,0,0
0,0,-20,-2039,-110,595,-32,1,104,0,0,0,0,0,0,0,0,0,0,0
0,0,-15,-2030,-117,597,-33,2,113,0,0,0,0,0,0,0,0,0,0,0
0,0,-15,-2031,-99,594,-34,3,127,0,0,0,0,0,0,0,0,0,0,0
0,0,-17,-2035,-99,594,-33,3,122,0,0,0,0,0,0,0,0,0,0,0
0,0,-13,-2030,-111,595,-33,2,119,0,0,0,0,0,0,0,0,0,0,0
0,0,-21,-2030,-94,596,-32,2,130,0,0,0,0,0,0,0,0,0,0,0
0,0,-18,-2030,-108,596,-32,4,121,0,0,0,0,0,0,0,0,0,0,0
0,0,-14,-2027,-107,595,-33,3,126,0,0,0,0,0,0,0,0,0,0,0
0,0,-15,-2023,-96,594,-34,5,140,0,0,0,0,0,0,0,0,0,0,0
0,0,-17,-2029,-104,597,-33,3,126,0,0,0,0,0,0,0,0,0,0,0
0,0,-14,-2031,-103,596,-33,2,126,0,0,0,0,0,0,0,0,0,0,0
0,0,-20,-2030,-98,596,-34,3,126,0,0,0,0,0,0,0,0,0,0,0
0,0,-25,-2032,-110,595,-33,2,106,0,0,0,0,0,0,0,0,0,0,0
0,0,-12,-2026,-108,597,-32,4,132,0,0,0,0,0,0,0,0,0,0,0
0,0,-20,-2034,-101,596,-33,3,120,0,0,0,0,0,0,0,0,0,0,0
0,0,-29,-2033,-87,595,-34,3,124,0,0,0,0,0,0,0,0,0,0,0
0,0,-27,-2030,-98,596,-34,2,118,0,0,0,0,0,0,0,0,0,0,0
0,0,-23,-2035,-105,596,-34,4,112,0,0,0,0,0,0,0,0,0,0,0
0,0,-16,-2029,-110,595,-32,3,120,0,0,0,0,0,0,0,0,0,0,0
0,0,-16,-2035,-106,595,-33,3,117,0,0,0,0,0,0,0,0,0,0,0
0,0,-14,-2032,-103,595,-34,5,126,0,0,0,0,0,0,0,0,0,0,0
0,0,-22,-2040,-100,597,-32,5,117,0,0,0,0,0,0,0,0,0,0,0
0,0,-22,-2033,-106,597,-35,3,113,0,0,0,0,0,0,0,0,0,0,0
0,0,-17,-2026,-105,595,-33,3,126,0,0,0,0,0,0,0,0,0,0,0
0,0,-22,-2035,-112,596,-34,3,105,0,0,0,0,0,0,0,0,0,0,0
0,0,-24,-2037,-101,596,-34,4,113,0,0,0,0,0,0,0,0,0,0,0
0,0,-19,-2033,-105,596,-32,3,119,0,0,0,0,0,0,0,0,0,0,0
0,0,-23,-2029,-107,596,-32,4,118,0,0,0,0,0,0,0,0,0,0,0
0,0,-24,-2032,-103,594,-32,3,115,0,0,0,0,0,0,0,0,0,0,0
0,0,-18,-2029,-108,597,-32,3,122,0,0,0,0,0,0,0,0,0,0,0
0,0,-15,-2029,-106,596,-33,2,124,0,0,0,0,0,0,0,0,0,0,0
0,0,-25,-2024,-100,598,-32,2,128,0,0,0,0,0,0,0,0,0,0,0
0,0,-25,-2029,-103,595,-33,5,119,0,0,0,0,0,0,0,0,0,0,0
0,0,-24,-2023,-114,597,-32,4,117,0,0,0,0,0,0,0,0,0,0,0
0,0,-22,-2028,-97,597,-31,2,130,0,0,0,0,0,0,0,0,0,0,0
0,0,-19,-2029,-99,597,-32,3,130,0,0,0,0,0,0,0,0,0,0,0
0,0,-27,-2021,-105,597,-32,3,124,0,0,0,0,0,0,0,0,0,0,0
0,0,-21,-2030,-113,596,-32,3,112,0,0,0,0,0,0,0,0,0,0,0
0,0,-24,-2028,-103,597,-33,4,122,0,0,0,0,0,0,0,0,0,0,0
0,0,-17,-2031,-112,595,-32,2,114,0,0,0,0,0,0,0,0,0,0,0
0,0,-15,-2039,-100,597,-34,3,121,0,0,0,0,0,0,0,0,0,0,0
0,0,-16,-2036,-102,597,-34,3,121,0,0,0,0,0,0,0,0,0,0,0
0,0,-22,-2039,-106,597,-34,2,107,0,0,0,0,0,0,0,0,0,0,0
0,0,-24,-2044,-108,596,-32,2,99,0,0,0,0,0,0,0,0,0,0,0
0,0,-16,-2036,-117,596,-33,2,105,0,0,0,0,0,0,0,0,0,0,0
0,0,-16,-2033,-103,595,-32,3,123,0,0,0,0,0,0,0,0,0,0,0
0,0,-15,-2028,-104,594,-35,4,125,0,0,0,0,0,0,0,0,0,0,0
0,0,-18,-2039,-103,595,-33,3,114,0,0,0,0,0,0,0,0,0,0,0
0,0,-17,-2032,-105,595,-34,4,120,0,0,0,0,0,0,0,0,0,0,0
0,0,-21,-2033,-99,597,-33,4,124,0,0,0,0,0,0,0,0,0,0,0
0,0,-30,-2029,-102,598,-33,3,116,0,0,0,0,0,0,0,0,0,0,0
0,0,-17,-2024,-110,596,-32,3,125,0,0,0,0,0,0,0,0,0,0,0
0,0,-14,-2031,-110,595,-31,2,120,0,0,0,0,0,0,0,0,0,0,0
0,0,-24,-2039,-94,596,-32,3,119,0,0,0,0,0,0,0,0,0,0,0
0,0,-22,-2033,-98,597,-32,3,124,0,0,0,0,0,0,0,0,0,0,0
0,0,-17,-2036,-106,597,-32,3,118,0,0,0,0,0,0,0,0,0,0,0
0,0,-13,-2035,-101,596,-34,4,126,0,0,0,0,0,0,0,0,0,0,0
0,0,-22,-2031,-106,595,-32,3,116,0,0,0,0,0,0,0,0,0,0,0
0,0,-16,-2027,-93,595,-33,3,138,0,0,0,0,0,0,0,0,0,0,0
0,0,-29,-2036,-118,596,-33,2,91,0,0,0,0,0,0,0,0,0,0,0
0,0,-15,-2024,-99,596,-34,2,135,0,0,0,0,0,0,0,0,0,0,0
0,0,-20,-2036,-106,594,-32,4,113,0,0,0,0,0,0,0,0,0,0,0
0,0,-22,-2033,-107,595,-33,4,113,0,0,0,0,0,0,0,0,0,0,0
0,0,-26,-2027,-101,596,-33,3,121,0,0,0,0,0,0,0,0,0,0,0
0,0,-24,-2032,-107,595,-34,1,108,0,0,0,0,0,0,0,0,0,0,0
0,0,-22,-2029,-111,595,-32,3,113,0,0,0,0,0,0,0,0,0,0,0
0,0,-23,-2034,-105,597,-32,1,113,0,0,0,0,0,0,0,0,0,0,0
0,0,-19,-2032,-116,595,-34,3,106,0,0,0,0,0,0,0,0,0,0,0
0,0,-19,-2032,-117,597,-33,3,108,0,0,0,0,0,0,0,0,0,0,0
0,0,-20,-2037,-102,594,-33,2,113,0,0,0,0,0,0,0,0,0,0,0
0,0,-20,-2028,-108,595,-33,4,119,0,0,0,0,0,0,0,0,0,0,0
0,0,-16,-2029,-112,595,-33,3,117,0,0,0,0,0,0,0,0,0,0,0
0,0,-18,-2037,-110,596,-33,2,109,0,0,0,0,0,0,0,0,0,0,0
0,0,-27,-2030,-99,595,-32,3,119,0,0,0,0,0,0,0,0,0,0,0
0,0,-19,-2031,-105,595,-31,2,120,0,0,0,0,0,0,0,0,0,0,0
0,0,-20,-2030,-104,597,-33,2,121,0,0,0,0,0,0,0,0,0,0,0
0,0,-20,-2034,-103,596,-34,3,117,0,0,0,0,0,0,0,0,0,0,0
0,0,-20,-2030,-111,596,-33,4,115,0,0,0,0,0,0,0,0,0,0,0
0,0,-18,-2032,-109,597,-34,1,114,0,0,0,0,0,0,0,0,0,0,0
0,0,-18,-2038,-104,594,-33,3,113,0,0,0,0,0,0,0,0,0,0,0
0,0,-22,-2028,-107,595,-33,1,115,0,0,0,0,0,0,0,0,0,0,0
0,0,-22,-2033,-108,595,-34,3,110,0,0,0,0,0,0,0,0,0,0,0
0,0,-19,-2037,-96,596,-33,3,123,0,0,0,0,0,0,0,0,0,0,0
0,0,-14,-2032,-109,595,-33,2,118,0,0,0,0,0,0,0,0,0,0,0
0,0,-16,-2030,-112,595,-33,4,117,0,0,0,0,0,0,0,0,0,0,0
0,0,-17,-2031,-122,596,-34,2,103,0,0,0,0,0,0,0,0,0,0,0
0,0,-25,-2036,-109,596,-34,4,105,0,0,0,0,0,0,0,0,0,0,0
0,0,-18,-2037,-103,597,-33,4,119,0,0,0,0,0,0,0,0,0,0,0
0,0,-21,-2031,-107,595,-34,1,112,0,0,0,0,0,0,0,0,0,0,0
0,0,-23,-2032,-107,596,-32,3,114,0,0,0,0,0,0,0,0,0,0,0
0,0,-24,-2036,-103,595,-32,3,112,0,0,0,0,0,0,0,0,0,0,0
0,0,-15,-2029,-111,596,-32,3,121,0,0,0,0,0,0,0,0,0,0,0
0,0,-26,-2024,-101,598,-31,4,129,0,0,0,0,0,0,0,0,0,0,0
0,0,-22,-2035,-103,599,-33,3,118,0,0,0,0,0,0,0,0,0,0,0
0,0,-20,-2029,-102,596,-34,4,124,0,0,0,0,0,0,0,0,0,0,0
0,0,-12,-2026,-110,595,-32,1,125,0,0,0,0,0,0,0,0,0,0,0
0,0,-18,-2031,-100,597,-34,1,124,0,0,0,0,0,0,0,0,0,0,0
0,0,-11,-2031,-102,595,-32,2,130,0,0,0,0,0,0,0,0,0,0,0
0,0,-17,-2029,-115,595,-33,4,114,0,0,0,0,0,0,0,0,0,0,0
0,0,-16,-2039,-105,596,-35,4,114,0,0,0,0,0,0,0,0,0,0,0
0,0,-18,-2029,-110,595,-32,5,120,0,0,0,0,0,0,0,0,0,0,0
0,0,-14,-2031,-101,596,-32,3,130,0,0,0,0,0,0,0,0,0,0,0
0,0,-16,-2033,-111,597,-32,2,116,0,0,0,0,0,0,0,0,0,0,0
0,0,-17,-2029,-106,597,-33,3,124,0,0,0,0,0,0,0,0,0,0,0
0,0,-19,-2028,-105,596,-32,2,123,0,0,0,0,0,0,0,0,0,0,0
0,0,-19,-2038,-106,597,-34,4,113,0,0,0,0,0,0,0,0,0,0,0
0,0,-17,-2029,-104,595,-34,3,123,0,0,0,0,0,0,0,0,0,0,0
0,0,-16,-2028,-102,595,-34,4,128,0,0,0,0,0,0,0,0,0,0,0
0,0,-9,-2033,-106,596,-33,3,127,0,0,0,0,0,0,0,0,0,0,0
0,0,-15,-2029,-101,595,-34,3,128,0,0,0,0,0,0,0,0,0,0,0
0,0,-17,-2032,-108,596,-33,3,118,0,0,0,0,0,0,0,0,0,0,0
0,0,-17,-2033,-103,597,-33,3,123,0,0,0,0,0,0,0,0,0,0,0
0,0,-21,-2021,-105,596,-33,3,128,0,0,0,0,0,0,0,0,0,0,0
0,0,-18,-2035,-103,597,-32,2,120,0,0,0,0,0,0,0,0,0,0,0
0,0,-13,-2037,-103,596,-32,1,121,0,0,0,0,0,0,0,0,0,0,0
0,0,-19,-2034,-116,596,-35,4,105,0,0,0,0,0,0,0,0,0,0,0
0,0,-18,-2032,-102,599,-32,3,127,0,0,0,0,0,0,0,0,0,0,0
0,0,-21,-2024,-100,596,-34,2,128,0,0,0,0,0,0,0,0,0,0,0
0,0,-27,-2031,-100,596,-32,2,117,0,0,0,0,0,0,0,0,0,0,0
0,0,-20,-2030,-101,595,-32,1,122,0,0,0,0,0,0,0,0,0,0,0
0,0,-12,-2033,-101,596,-32,3,130,0,0,0,0,0,0,0,0,0,0,0
0,0,-20,-2034,-110,596,-33,1,109,0,0,0,0,0,0,0,0,0,0,0
0,0,-23,-2035,-102,596,-34,1,112,0,0,0,0,0,0,0,0,0,0,0
0,0,-18,-2031,-99,596,-34,3,126,0,0,0,0,0,0,0,0,0,0,0
0,0,-23,-2033,-99,596,-32,3,121,0,0,0,0,0,0,0,0,0,0,0
0,0,-16,-2035,-107,596,-33,5,119,0,0,0,0,0,0,0,0,0,0,0
0,0,-25,-2034,-114,596,-32,2,102,0,0,0,0,0,0,0,0,0,0,0
0,0,-23,-2035,-111,597,-34,2,105,0,0,0,0,0,0,0,0,0,0,0
0,0,-24,-2033,-108,594,-33,4,109,0,0,0,0,0,0,0,0,0,0,0
0,0,-29,-2033,-95,594,-32,3,117,0,0,0,0,0,0,0,0,0,0,0
0,0,-22,-2037,-105,596,-33,2,110,0,0,0,0,0,0,0,0,0,0,0
0,0,-20,-2031,-109,596,-33,2,114,0,0,0,0,0,0,0,0,0,0,0
0,0,-14,-2035,-105,595,-32,2,120,0,0,0,0,0,0,0,0,0,0,0
0,0,-21,-2039,-113,595,-32,4,103,0,0,0,0,0,0,0,0,0,0,0
0,0,-19,-2030,-106,594,-34,5,119,0,0,0,0,0,0,0,0,0,0,0
0,0,-13,-2041,-104,596,-35,3,115,0,0,0,0,0,0,0,0,0,0,0
0,0,-23,-2030,-97,596,-32,4,127,0,0,0,0,0,0,0,0,0,0,0
0,0,-24,-2027,-105,596,-33,3,119,0,0,0,0,0,0,0,0,0,0,0
0,0,-24,-2030,-101,596,-33,3,120,0,0,0,0,0,0,0,0,0,0,0
0,0,-14,-2034,-109,596,-31,4,121,0,0,0,0,0,0,0,0,0,0,0
0,0,-20,-2041,-110,596,-33,2,103,0,0,0,0,0,0,0,0,0,0,0
0,0,-22,-2036,-103,598,-33,3,116,0,0,0,0,0,0,0,0,0,0,0
0,0,-20,-2031,-113,596,-34,2,109,0,0,0,0,0,0,0,0,0,0,0
0,0,-22,-2027,-102,596,-32,4,126,0,0,0,0,0,0,0,0,0,0,0
0,0,-20,-2035,-110,596,-33,2,109,0,0,0,0,0,0,0,0,0,0,0
0,0,-15,-2034,-118,596,-32,4,110,0,0,0,0,0,0,0,0,0,0,0
0,0,-15,-2036,-109,595,-33,2,113,0,0,0,0,0,0,0,0,0,0,0
0,0,-19,-2034,-109,595,-32,2,112,0,0,0,0,0,0,0,0,0,0,0
0,0,-11,-2027,-110,595,-33,4,127,0,0,0,0,0,0,0,0,0,0,0
0,0,-19,-2028,-112,596,-33,2,115,0,0,0,0,0,0,0,0,0,0,0
0,0,-18,-2033,-107,596,-34,4,117,0,0,0,0,0,0,0,0,0,0,0
0,0,-16,-2029,-121,598,-32,4,113,0,0,0,0,0,0,0,0,0,0,0
0,0,-19,-2031,-107,596,-34,2,116,0,0,0,0,0,0,0,0,0,0,0
0,0,-21,-2028,-107,593,-34,3,115,0,0,0,0,0,0,0,0,0,0,0
0,0,-23,-2034,-102,597,-33,4,118,0,0,0,0,0,0,0,0,0,0,0
0,0,-19,-2036,-111,595,-34,2,106,0,0,0,0,0,0,0,0,0,0,0
0,0,-26,-2033,-107,597,-34,1,107,0,0,0,0,0,0,0,0,0,0,0
0,0,-21,-2025,-101,596,-35,2,125,0,0,0,0,0,0,0,0,0,0,0
0,0,-19,-2029,-107,597,-34,3,120,0,0,0,0,0,0,0,0,0,0,0
0,0,-22,-2033,-102,596,-33,5,120,0,0,0,0,0,0,0,0,0,0,0
0,0,-21,-2034,-118,596,-32,3,103,0,0,0,0,0,0,0,0,0,0,0
0,0,-23,-2033,-98,595,-34,2,118,0,0,0,0,0,0,0,0,0,0,0
0,0,-30,-2037,-96,595,-33,3,111,0,0,0,0,0,0,0,0,0,0,0
0,0,-23,-2032,-105,594,-33,3,113,0,0,0,0,0,0,0,0,0,0,0
0,0,-18,-2029,-103,595,-32,2,124,0,0,0,0,0,0,0,0,0,0,0
0,0,-14,-2036,-109,598,-31,3,120,0,0,0,0,0,0,0,0,0,0,0
0,0,-19,-2032,-110,596,-33,4,115,0,0,0,0,0,0,0,0,0,0,0
0,0,-17,-2027,-97,597,-31,4,138,0,0,0,0,0,0,0,0,0,0,0
0,0,-22,-2025,-105,595,-33,5,124,0,0,0,0,0,0,0,0,0,0,0
0,0,-19,-2024,-118,595,-32,4,115,0,0,0,0,0,0,0,0,0,0,0
0,0,-22,-2035,-103,596,-31,4,118,0,0,0,0,0,0,0,0,0,0,0
0,0,-14,-2035,-108,596,-33,3,118,0,0,0,0,0,0,0,0,0,0,0
0,0,-18,-2029,-103,595,-33,3,124,0,0,0,0,0,0,0,0,0,0,0
0,0,-11,-2033,-111,595,-33,4,120,0,0,0,0,0,0,0,0,0,0,0
0,0,-15,-2029,-102,596,-33,4,130,0,0,0,0,0,0,0,0,0,0,0
0,0,-23,-2032,-108,597,-34,2,111,0,0,0,0,0,0,0,0,0,0,0
0,0,-21,-2030,-105,596,-31,3,121,0,0,0,0,0,0,0,0,0,0,0
0,0,-18,-2029,-111,595,-34,2,114,0,0,0,0,0,0,0,0,0,0,0
0,0,-23,-2033,-112,597,-34,3,107,0,0,0,0,0,0,0,0,0,0,0
0,0,-20,-2031,-104,597,-32,4,123,0,0,0,0,0,0,0,0,0,0,0
0,0,-17,-2035,-101,596,-33,4,123,0,0,0,0,0,0,0,0,0,0,0
0,0,-21,-2032,-105,595,-34,5,117,0,0,0,0,0,0,0,0,0,0,0
0,0,-16,-2028,-110,594,-33,3,119,0,0,0,0,0,0,0,0,0,0,0
0,0,-17,-2032,-90,595,-33,1,133,0,0,0,0,0,0,0,0,0,0,0
0,0,-17,-2032,-100,597,-33,2,126,0,0,0,0,0,0,0,0,0,0,0
0,0,-22,-2032,-118,596,-32,3,104,0,0,0,0,0,0,0,0,0,0,0
0,0,-21,-2020,-109,595,-34,3,123,0,0,0,0,0,0,0,0,0,0,0
0,0,-22,-2023,-108,597,-33,1,121,0,0,0,0,0,0,0,0,0,0,0
0,0,-12,-2040,-99,595,-32,1,122,0,0,0,0,0,0,0,0,0,0,0
0,0,-21,-2037,-98,596,-33,3,119,0,0,0,0,0,0,0,0,0,0,0
0,0,-16,-2033,-104,595,-34,3,120,0,0,0,0,0,0,0,0,0,0,0
0,0,-16,-2029,-109,596,-32,2,121,0,0,0,0,0,0,0,0,0,0,0
0,0,-15,-2037,-106,597,-33,2,117,0,0,0,0,0,0,0,0,0,0,0
0,0,-22,-2043,-106,596,-33,3,104,0,0,0,0,0,0,0,0,0,0,0
0,0,-15,-2048,-97,597,-33,3,116,0,0,0,0,0,0,0,0,0,0,0
0,0,-16,-2037,-105,596,-33,3,117,0,0,0,0,0,0,0,0,0,0,0
0,0,-16,-2033,-104,596,-31,3,124,0,0,0,0,0,0,0,0,0,0,0
0,0,-22,-2025,-106,598,-32,1,123,0,0,0,0,0,0,0,0,0,0,0
0,0,-22,-2029,-103,596,-33,3,121,0,0,0,0,0,0,0,0,0,0,0
0,0,-23,-2024,-103,595,-32,2,124,0,0,0,0,0,0,0,0,0,0,0
0,0,-15,-2029,-106,596,-33,2,124,0,0,0,0,0,0,0,0,0,0,0
0,0,-16,-2029,-101,598,-31,4,134,0,0,0,0,0,0,0,0,0,0,0
0,0,-16,-2035,-99,597,-34,2,124,0,0,0,0,0,0,0,0,0,0,0
0,0,-20,-2027,-101,595,-34,2,124,0,0,0,0,0,0,0,0,0,0,0
0,0,-20,-2036,-107,593,-32,4,111,0,0,0,0,0,0,0,0,0,0,0
0,0,-28,-2029,-104,596,-34,3,113,0,0,0,0,0,0,0,0,0,0,0
0,0,-18,-2029,-107,597,-33,3,122,0,0,0,0,0,0,0,0,0,0,0
0,0,-19,-2028,-96,596,-33,3,132,0,0,0,0,0,0,0,0,0,0,0
0,0,-21,-2034,-95,598,-34,2,125,0,0,0,0,0,0,0,0,0,0,0
0,0,-26,-2039,-91,597,-35,3,118,0,0,0,0,0,0,0,0,0,0,0
0,0,-26,-2039,-103,596,-33,3,107,0,0,0,0,0,0,0,0,0,0,0
0,0,-16,-2030,-113,596,-33,4,117,0,0,0,0,0,0,0,0,0,0,0
0,0,-21,-2031,-112,597,-33,4,113,0,0,0,0,0,0,0,0,0,0,0
0,0,-22,-2031,-105,597,-33,4,119,0,0,0,0,0,0,0,0,0,0,0
0,0,-23,-2032,-105,595,-33,2,113,0,0,0,0,0,0,0,0,0,0,0
0,0,-21,-2023,-108,596,-34,3,122,0,0,0,0,0,0,0,0,0,0,0
0,0,-14,-2022,-104,595,-33,2,133,0,0,0,0,0,0,0,0,0,0,0
0,0,-23,-2028,-102,597,-34,5,124,0,0,0,0,0,0,0,0,0,0,0
0,0,-16,-2032,-103,596,-33,3,124,0,0,0,0,0,0,0,0,0,0,0
0,0,-20,-2024,-115,596,-33,2,115,0,0,0,0,0,0,0,0,0,0,0
0,0,-17,-2029,-113,595,-32,3,116,0,0,0,0,0,0,0,0,0,0,0
0,0,-20,-2027,-111,597,-33,2,117,0,0,0,0,0,0,0,0,0,0,0
0,0,-17,-2034,-96,596,-32,1,127,0,0,0,0,0,0,0,0,0,0,0
0,0,-24,-2034,-102,595,-33,3,114,0,0,0,0,0,0,0,0,0,0,0
0,0,-14,-2037,-105,594,-32,4,119,0,0,0,0,0,0,0,0,0,0,0
0,0,-22,-2029,-107,597,-34,1,115,0,0,0,0,0,0,0,0,0,0,0
0,0,-19,-2037,-105,596,-33,3,114,0,0,0,0,0,0,0,0,0,0,0
0,0,-23,-2037,-110,598,-33,3,107,0,0,0,0,0,0,0,0,0,0,0
0,0,-14,-2030,-98,596,-33,3,133,0,0,0,0,0,0,0,0,0,0,0
0,0,-14,-2035,-107,597,-34,3,119,0,0,0,0,0,0,0,0,0,0,0
0,0,-20,-2031,-104,595,-34,4,119,0,0,0,0,0,0,0,0,0,0,0
0,0,-13,-2027,-104,597,-34,4,132,0,0,0,0,0,0,0,0,0,0,0
0,0,-27,-2033,-112,594,-34,2,99,0,0,0,0,0,0,0,0,0,0,0
0,0,-13,-2033,-105,596,-33,1,122,0,0,0,0,0,0,0,0,0,0,0
0,0,-19,-2032,-106,596,-33,2,117,0,0,0,0,0,0,0,0,0,0,0
0,0,-16,-2030,-108,596,-33,4,122,0,0,0,0,0,0,0,0,0,0,0
0,0,-21,-2033,-106,595,-33,5,116,0,0,0,0,0,0,0,0,0,0,0
0,0,-17,-2032,-109,595,-34,2,114,0,0,0,0,0,0,0,0,0,0,0
0,0,-20,-2029,-106,595,-33,2,118,0,0,0,0,0,0,0,0,0,0,0
0,0,-20,-2026,-101,595,-33,2,126,0,0,0,0,0,0,0,0,0,0,0
0,0,-9,-2030,-105,596,-33,2,130,0,0,0,0,0,0,0,0,0,0,0
0,0,-17,-2021,-111,596,-32,3,127,0,0,0,0,0,0,0,0,0,0,0
0,0,-17,-2036,-109,596,-35,2,110,0,0,0,0,0,0,0,0,0,0,0
0,0,-15,-2032,-105,595,-32,4,124,0,0,0,0,0,0,0,0,0,0,0
0,0,-20,-2035,-104,597,-32,3,118,0,0,0,0,0,0,0,0,0,0,0
0,0,-20,-2032,-100,598,-33,4,126,0,0,0,0,0,0,0,0,0,0,0
0,0,-19,-2037,-105,597,-33,3,115,0,0,0,0,0,0,0,0,0,0,0
0,0,-18,-2029,-107,597,-34,4,122,0,0,0,0,0,0,0,0,0,0,0
0,0,-15,-2024,-105,597,-34,1,129,0,0,0,0,0,0,0,0,0,0,0
0,0,-13,-2031,-112,596,-33,2,118,0,0,0,0,0,0,0,0,0,0,0
0,0,-8,-2035,-101,596,-34,3,130,0,0,0,0,0,0,0,0,0,0,0
0,0,-17,-2034,-99,597,-32,5,129,0,0,0,0,0,0,0,0,0,0,0
0,0,-19,-2039,-106,598,-33,5,115,0,0,0,0,0,0,0,0,0,0,0
0,0,-21,-2029,-114,596,-33,2,110,0,0,0,0,0,0,0,0,0,0,0
0,0,-12,-2030,-113,596,-31,4,123,0,0,0,0,0,0,0,0,0,0,0
0,0,-19,-2034,-102,598,-32,4,124,0,0,0,0,0,0,0,0,0,0,0
0,0,-18,-2028,-108,598,-31,2,124,0,0,0,0,0,0,0,0,0,0,0
0,0,-18,-2029,-106,597,-34,4,123,0,0,0,0,0,0,0,0,0,0,0
0,0,-20,-2034,-104,596,-34,4,117,0,0,0,0,0,0,0,0,0,0,0
0,0,-13,-2037,-104,596,-32,4,123,0,0,0,0,0,0,0,0,0,0,0
0,0,-14,-2031,-107,597,-33,5,126,0,0,0,0,0,0,0,0,0,0,0
0,0,-13,-2037,-112,596,-32,6,117,0,0,0,0,0,0,0,0,0,0,0
0,0,-25,-2032,-104,597,-33,3,115,0,0,0,0,0,0,0,0,0,0,0
0,0,-25,-2029,-105,595,-33,3,115,0,0,0,0,0,0,0,0,0,0,0
0,0,-17,-2044,-103,596,-31,2,112,0,0,0,0,0,0,0,0,0,0,0
0,0,-19,-2044,-112,597,-33,1,99,0,0,0,0,0,0,0,0,0,0,0
0,0,-22,-2036,-111,596,-32,3,107,0,0,0,0,0,0,0,0,0,0,0
0,0,-14,-2028,-113,595,-34,2,117,0,0,0,0,0,0,0,0,0,0,0
0,0,-20,-2032,-109,597,-33,3,115,0,0,0,0,0,0,0,0,0,0,0
0,0,-16,-2030,-101,596,-33,1,126,0,0,0,0,0,0,0,0,0,0,0
0,0,-20,-2035,-106,596,-33,2,113,0,0,0,0,0,0,0,0,0,0,0
0,0,-19,-2030,-111,596,-33,4,116,0,0,0,0,0,0,0,0,0,0,0
0,0,-17,-2032,-103,597,-33,3,124,0,0,0,0,0,0,0,0,0,0,0
0,0,-21,-2029,-118,597,-34,2,106,0,0,0,0,0,0,0,0,0,0,0
0,0,-18,-2035,-104,596,-33,3,118,0,0,0,0,0,0,0,0,0,0,0
0,0,-21,-2034,-111,595,-34,4,108,0,0,0,0,0,0,0,0,0,0,0
0,0,-20,-2034,-95,596,-34,4,126,0,0,0,0,0,0,0,0,0,0,0
0,0,-16,-2036,-113,596,-33,4,111,0,0,0,0,0,0,0,0,0,0,0
0,0,-19,-2030,-110,596,-33,4,117,0,0,0,0,0,0,0,0,0,0,0
0,0,-19,-2031,-107,597,-33,2,118,0,0,0,0,0,0,0,0,0,0,0
0,0,-15,-2031,-112,597,-32,4,120,0,0,0,0,0,0,0,0,0,0,0
0,0,-21,-2027,-111,597,-31,1,117,0,0,0,0,0,0,0,0,0,0,0
0,0,-21,-2032,-101,596,-32,4,123,0,0,0,0,0,0,0,0,0,0,0
0,0,-21,-2038,-112,596,-32,3,105,0,0,0,0,0,0,0,0,0,0,0
0,0,-25,-2029,-107,595,-33,2,112,0,0,0,0,0,0,0,0,0,0,0
0,0,-18,-2036,-104,595,-33,3,116,0,0,0,0,0,0,0,0,0,0,0
0,0,-17,-2032,-105,596,-32,4,123,0,0,0,0,0,0,0,0,0,0,0
0,0,-25,-2038,-111,596,-31,3,103,0,0,0,0,0,0,0,0,0,0,0
0,0,-23,-2034,-109,596,-31,4,112,0,0,0,0,0,0,0,0,0,0,0
0,0,-17,-2041,-113,597,-34,3,104,0,0,0,0,0,0,0,0,0,0,0
0,0,-17,-2035,-112,596,-34,4,111,0,0,0,0,0,0,0,0,0,0,0
0,0,-17,-2029,-108,597,-32,2,122,0,0,0,0,0,0,0,0,0,0,0
0,0,-18,-2030,-103,596,-35,1,120,0,0,0,0,0,0,0,0,0,0,0
0,0,-17,-2025,-109,596,-35,2,121,0,0,0,0,0,0,0,0,0,0,0
0,0,-25,-2035,-109,597,-33,3,107,0,0,0,0,0,0,0,0,0,0,0
0,0,-19,-2030,-113,596,-32,4,115,0,0,0,0,0,0,0,0,0,0,0
0,0,-23,-2031,-108,596,-31,5,117,0,0,0,0,0,0,0,0,0,0,0
0,0,-14,-2032,-109,597,-33,2,120,0,0,0,0,0,0,0,0,0,0,0
0,0,-25,-2035,-114,595,-32,2,100,0,0,0,0,0,0,0,0,0,0,0
0,0,-22,-2023,-104,595,-33,3,125,0,0,0,0,0,0,0,0,0,0,0
0,0,-20,-2034,-110,595,-31,3,112,0,0,0,0,0,0,0,0,0,0,0
0,0,-24,-2030,-117,596,-32,3,105,0,0,0,0,0,0,0,0,0,0,0
0,0,-17,-2029,-104,595,-32,3,125,0,0,0,0,0,0,0,0,0,0,0
0,0,-19,-2026,-102,595,-32,3,128,0,0,0,0,0,0,0,0,0,0,0
0,0,-20,-2034,-108,596,-33,3,113,0,0,0,0,0,0,0,0,0,0,0
0,0,-29,-2031,-107,596,-32,2,108,0,0,0,0,0,0,0,0,0,0,0
0,0,-28,-2030,-103,596,-32,1,113,0,0,0,0,0,0,0,0,0,0,0
0,0,-21,-2034,-107,597,-33,1,112,0,0,0,0,0,0,0,0,0,0,0
0,0,-24,-2030,-104,596,-33,3,117,0,0,0,0,0,0,0,0,0,0,0
0,0,-19,-2034,-101,598,-33,3,123,0,0,0,0,0,0,0,0,0,0,0
0,0,-28,-2034,-98,595,-35,3,112,0,0,0,0,0,0,0,0,0,0,0
0,0,-20,-2029,-116,596,-34,2,108,0,0,0,0,0,0,0,0,0,0,0
0,0,-22,-2035,-113,596,-32,4,107,0,0,0,0,0,0,0,0,0,0,0
0,0,-21,-2029,-98,596,-31,3,129,0,0,0,0,0,0,0,0,0,0,0
0,0,-21,-2035,-99,593,-33,2,116,0,0,0,0,0,0,0,0,0,0,0
0,0,-11,-2031,-98,596,-32,4,137,0,0,0,0,0,0,0,0,0,0,0
0,0,-25,-2032,-102,597,-32,4,119,0,0,0,0,0,0,0,0,0,0,0
0,0,-16,-2039,-109,596,-32,3,112,0,0,0,0,0,0,0,0,0,0,0
0,0,-6,-2029,-118,596,-34,2,120,0,0,0,0,0,0,0,0,0,0,0
0,0,-24,-2032,-111,595,-34,4,107,0,0,0,0,0,0,0,0,0,0,0
0,0,-20,-2030,-113,596,-34,3,111,0,0,0,0,0,0,0,0,0,0,0
0,0,-23,-2036,-108,598,-35,3,108,0,0,0,0,0,0,0,0,0,0,0
0,0,-20,-2030,-108,596,-34,2,115,0,0,0,0,0,0,0,0,0,0,0
0,0,-19,-2034,-103,596,-33,3,119,0,0,0,0,0,0,0,0,0,0,0
0,0,-22,-2037,-109,597,-32,3,109,0,0,0,0,0,0,0,0,0,0,0
0,0,-24,-2032,-106,598,-33,4,116,0,0,0,0,0,0,0,0,0,0,0
0,0,-20,-2029,-102,596,-34,3,123,0,0,0,0,0,0,0,0,0,0,0
0,0,-27,-2033,-92,596,-31,4,126,0,0,0,0,0,0,0,0,0,0,0
0,0,-20,-2037,-114,596,-33,3,104,0,0,0,0,0,0,0,0,0,0,0
0,0,-23,-2034,-106,596,-32,4,114,0,0,0,0,0,0,0,0,0,0,0
0,0,-28,-2038,-101,596,-32,2,108,0,0,0,0,0,0,0,0,0,0,0
0,0,-18,-2031,-106,596,-33,2,119,0,0,0,0,0,0,0,0,0,0,0
0,0,-21,-2030,-109,596,-33,4,116,0,0,0,0,0,0,0,0,0,0,0
0,0,-20,-2035,-110,597,-33,2,110,0,0,0,0,0,0,0,0,0,0,0
0,0,-22,-2035,-111,595,-34,4,106,0,0,0,0,0,0,0,0,0,0,0
0,0,-25,-2038,-109,597,-33,3,104,0,0,0,0,0,0,0,0,0,0,0
0,0,-23,-2030,-111,596,-33,3,111,0,0,0,0,0,0,0,0,0,0,0
0,0,-17,-2039,-111,595,-33,2,106,0,0,0,0,0,0,0,0,0,0,0
0,0,-14,-2023,-106,595,-33,3,131,0,0,0,0,0,0,0,0,0,0,0
0,0,-22,-2027,-116,595,-32,4,111,0,0,0,0,0,0,0,0,0,0,0
0,0,-24,-2028,-108,596,-32,1,114,0,0,0,0,0,0,0,0,0,0,0
0,0,-16,-2029,-109,596,-32,2,121,0,0,0,0,0,0,0,0,0,0,0
0,0,-17,-2033,-114,595,-32,2,110,0,0,0,0,0,0,0,0,0,0,0
0,0,-18,-2029,-115,596,-32,3,114,0,0,0,0,0,0,0,0,0,0,0
0,0,-18,-2035,-112,598,-35,3,110,0,0,0,0,0,0,0,0,0,0,0
0,0,-19,-2033,-109,596,-34,3,113,0,0,0,0,0,0,0,0,0,0,0
0,0,-20,-2029,-108,596,-32,3,119,0,0,0,0,0,0,0,0,0,0,0
0,0,-20,-2028,-101,596,-31,2,127,0,0,0,0,0,0,0,0,0,0,0
0,0,-20,-2032,-114,594,-32,3,108,0,0,0,0,0,0,0,0,0,0,0
0,0,-24,-2029,-111,596,-34,2,109,0,0,0,0,0,0,0,0,0,0,0
0,0,-11,-2032,-105,596,-34,5,128,0,0,0,0,0,0,0,0,0,0,0
0,0,-18,-2032,-116,595,-33,4,109,0,0,0,0,0,0,0,0,0,0,0
0,0,-18,-2037,-105,594,-32,3,114,0,0,0,0,0,0,0,0,0,0,0
0,0,-23,-2032,-101,598,-33,2,120,0,0,0,0,0,0,0,0,0,0,0
0,0,-23,-2026,-105,595,-33,3,120,0,0,0,0,0,0,0,0,0,0,0
0,0,-21,-2023,-105,596,-33,3,126,0,0,0,0,0,0,0,0,0,0,0
0,0,-22,-2031,-97,595,-32,3,125,0,0,0,0,0,0,0,0,0,0,0
0,0,-24,-2034,-104,594,-32,3,112,0,0,0,0,0,0,0,0,0,0,0
0,0,-19,-2032,-106,597,-33,3,119,0,0,0,0,0,0,0,0,0,0,0
0,0,-21,-2033,-97,596,-34,3,123,0,0,0,0,0,0,0,0,0,0,0
0,0,-12,-2032,-107,594,-34,3,121,0,0,0,0,0,0,0,0,0,0,0
0,0,-22,-2031,-107,596,-33,1,113,0,0,0,0,0,0,0,0,0,0,0
0,0,-22,-2030,-103,595,-33,3,119,0,0,0,0,0,0,0,0,0,0,0
0,0,-19,-2034,-97,596,-35,2,122,0,0,0,0,0,0,0,0,0,0,0
0,0,-19,-2023,-98,596,-33,3,135,0,0,0,0,0,0,0,0,0,0,0
0,0,-27,-2038,-99,596,-32,2,111,0,0,0,0,0,0,0,0,0,0,0
0,0,-20,-2041,-110,594,-33,3,102,0,0,0,0,0,0,0,0,0,0,0
0,0,-19,-2027,-111,594,-34,3,115,0,0,0,0,0,0,0,0,0,0,0
0,0,-19,-2026,-106,595,-33,0,120,0,0,0,0,0,0,0,0,0,0,0
0,0,-23,-2039,-98,595,-32,3,115,0,0,0,0,0,0,0,0,0,0,0
0,0,-19,-2028,-117,594,-32,4,111,0,0,0,0,0,0,0,0,0,0,0
0,0,-20,-2027,-102,597,-34,3,126,0,0,0,0,0,0,0,0,0,0,0
0,0,-14,-2034,-105,598,-35,4,123,0,0,0,0,0,0,0,0,0,0,0
0,0,-21,-2038,-112,596,-34,3,103,0,0,0,0,0,0,0,0,0,0,0
0,0,-12,-2034,-104,596,-34,3,124,0,0,0,0,0,0,0,0,0,0,0
0,0,-19,-2036,-110,596,-32,4,112,0,0,0,0,0,0,0,0,0,0,0
0,0,-15,-2030,-101,596,-34,4,129,0,0,0,0,0,0,0,0,0,0,0
0,0,-15,-2037,-107,596,-32,2,116,0,0,0,0,0,0,0,0,0,0,0
0,0,-23,-2035,-104,595,-34,2,110,0,0,0,0,0,0,0,0,0,0,0
0,0,-22,-2030,-106,596,-34,4,117,0,0,0,0,0,0,0,0,0,0,0
0,0,-21,-2030,-103,597,-33,2,121,0,0,0,0,0,0,0,0,0,0,0
0,0,-29,-2036,-102,597,-33,2,108,0,0,0,0,0,0,0,0,0,0,0
0,0,-8,-2034,-101,596,-33,4,133,0,0,0,0,0,0,0,0,0,0,0
0,0,-19,-2030,-100,597,-33,3,127,0,0,0,0,0,0,0,0,0,0,0
0,0,-28,-2031,-103,596,-33,2,112,0,0,0,0,0,0,0,0,0,0,0
0,0,-19,-2030,-116,596,-33,1,108,0,0,0,0,0,0,0,0,0,0,0
0,0,-23,-2035,-112,598,-35,2,104,0,0,0,0,0,0,0,0,0,0,0
0,0,-17,-2038,-107,597,-32,2,114,0,0,0,0,0,0,0,0,0,0,0
0,0,-16,-2028,-109,597,-34,2,121,0,0,0,0,0,0,0,0,0,0,0
0,0,-16,-2032,-117,598,-31,2,113,0,0,0,0,0,0,0,0,0,0,0
0,0,-27,-2034,-111,596,-33,4,104,0,0,0,0,0,0,0,0,0,0,0
0,0,-26,-2030,-108,597,-33,3,112,0,0,0,0,0,0,0,0,0,0,0
0,0,-18,-2029,-106,594,-32,5,123,0,0,0,0,0,0,0,0,0,0,0
0,0,-23,-2027,-98,595,-33,3,126,0,0,0,0,0,0,0,0,0,0,0
0,0,-25,-2035,-105,596,-34,4,110,0,0,0,0,0,0,0,0,0,0,0
0,0,-22,-2038,-101,595,-33,3,113,0,0,0,0,0,0,0,0,0,0,0
0,0,-20,-2032,-111,598,-33,2,113,0,0,0,0,0,0,0,0,0,0,0
0,0,-20,-2028,-106,596,-34,5,122,0,0,0,0,0,0,0,0,0,0,0
0,0,-17,-2033,-113,594,-32,4,112,0,0,0,0,0,0,0,0,0,0,0
0,0,-17,-2032,-116,594,-33,4,109,0,0,0,0,0,0,0,0,0,0,0
0,0,-20,-2032,-105,597,-33,3,119,0,0,0,0,0,0,0,0,0,0,0
0,0,-18,-2034,-110,596,-33,2,112,0,0,0,0,0,0,0,0,0,0,0
0,0,-14,-2028,-110,596,-34,3,122,0,0,0,0,0,0,0,0,0,0,0
0,0,-15,-2027,-96,597,-33,3,138,0,0,0,0,0,0,0,0,0,0,0
0,0,-15,-2030,-108,596,-33,4,123,0,0,0,0,0,0,0,0,0,0,0
0,0,-19,-2032,-107,595,-32,1,115,0,0,0,0,0,0,0,0,0,0,0
0,0,-16,-2026,-124,595,-33,3,108,0,0,0,0,0,0,0,0,0,0,0
0,0,-22,-2028,-105,596,-32,3,121,0,0,0,0,0,0,0,0,0,0,0
0,0,-14,-2034,-98,595,-34,3,127,0,0,0,0,0,0,0,0,0,0,0
0,0,-20,-2033,-101,594,-34,3,118,0,0,0,0,0,0,0,0,0,0,0
0,0,-18,-2029,-105,596,-34,3,122,0,0,0,0,0,0,0,0,0,0,0
0,0,-13,-2030,-108,595,-35,4,122,0,0,0,0,0,0,0,0,0,0,0
0,0,-18,-2027,-113,595,-34,4,116,0,0,0,0,0,0,0,0,0,0,0
0,0,-20,-2027,-105,596,-34,4,123,0,0,0,0,0,0,0,0,0,0,0
0,0,-21,-2036,-103,596,-34,4,115,0,0,0,0,0,0,0,0,0,0,0
0,0,-19,-2035,-107,595,-33,3,113,0,0,0,0,0,0,0,0,0,0,0
0,0,-19,-2036,-105,597,-32,4,118,0,0,0,0,0,0,0,0,0,0,0
0,0,-25,-2030,-101,597,-32,4,122,0,0,0,0,0,0,0,0,0,0,0
0,0,-24,-2030,-99,596,-32,5,125,0,0,0,0,0,0,0,0,0,0,0
0,0,-14,-2030,-107,597,-33,5,127,0,0,0,0,0,0,0,0,0,0,0
0,0,-22,-2034,-112,597,-33,4,109,0,0,0,0,0,0,0,0,0,0,0
0,0,-24,-2041,-102,598,-33,3,110,0,0,0,0,0,0,0,0,0,0,0
0,0,-22,-2030,-99,597,-33,4,126,0,0,0,0,0,0,0,0,0,0,0
0,0,-24,-2023,-108,597,-32,4,123,0,0,0,0,0,0,0,0,0,0,0
0,0,-14,-2035,-114,596,-33,3,112,0,0,0,0,0,0,0,0,0,0,0
0,0,-14,-2031,-112,596,-33,2,117,0,0,0,0,0,0,0,0,0,0,0
0,0,-18,-2032,-114,596,-32,1,110,0,0,0,0,0,0,0,0,0,0,0
0,0,-19,-2031,-117,597,-32,3,110,0,0,0,0,0,0,0,0,0,0,0
0,0,-21,-2032,-97,596,-33,4,126,0,0,0,0,0,0,0,0,0,0,0
0,0,-28,-2023,-104,598,-34,4,122,0,0,0,0,0,0,0,0,0,0,0
0,0,-25,-2035,-115,597,-32,2,101,0,0,0,0,0,0,0,0,0,0,0
0,0,-24,-2029,-116,596,-34,2,104,0,0,0,0,0,0,0,0,0,0,0
0,0,-27,-2030,-108,595,-34,2,107,0,0,0,0,0,0,0,0,0,0,0
0,0,-17,-2036,-109,595,-33,3,112,0,0,0,0,0,0,0,0,0,0,0
0,0,-17,-2023,-112,596,-32,4,125,0,0,0,0,0,0,0,0,0,0,0
0,0,-21,-2035,-113,596,-33,3,106,0,0,0,0,0,0,0,0,0,0,0
0,0,-21,-2028,-117,595,-31,3,110,0,0,0,0,0,0,0,0,0,0,0
0,0,-20,-2033,-111,597,-32,2,112,0,0,0,0,0,0,0,0,0,0,0
0,0,-15,-2038,-116,597,-34,4,107,0,0,0,0,0,0,0,0,0,0,0
0,0,-23,-2029,-109,597,-33,3,115,0,0,0,0,0,0,0,0,0,0,0
0,0,-21,-2031,-107,597,-33,3,117,0,0,0,0,0,0,0,0,0,0,0
0,0,-19,-2036,-106,597,-33,3,115,0,0,0,0,0,0,0,0,0,0,0
0,0,-21,-2033,-109,596,-32,4,114,0,0,0,0,0,0,0,0,0,0,0
0,0,-20,-2028,-112,596,-35,4,114,0,0,0,0,0,0,0,0,0,0,0
0,0,-6,-2035,-102,595,-31,2,132,0,0,0,0,0,0,0,0,0,0,0
0,0,-13,-2027,-97,595,-32,3,138,0,0,0,0,0,0,0,0,0,0,0
0,0,-18,-2031,-102,595,-34,3,122,0,0,0,0,0,0,0,0,0,0,0
0,0,-14,-2033,-109,596,-33,3,119,0,0,0,0,0,0,0,0,0,0,0
0,0,-19,-2035,-110,596,-33,2,110,0,0,0,0,0,0,0,0,0,0,0
0,0,-20,-2031,-105,596,-33,3,119,0,0,0,0,0,0,0,0,0,0,0
0,0,-17,-2030,-100,597,-35,3,127,0,0,0,0,0,0,0,0,0,0,0
0,0,-18,-2032,-113,596,-32,3,113,0,0,0,0,0,0,0,0,0,0,0
0,0,-16,-2031,-115,597,-34,3,113,0,0,0,0,0,0,0,0,0,0,0
0,0,-12,-2035,-104,596,-34,2,122,0,0,0,0,0,0,0,0,0,0,0
0,0,-16,-2031,-104,598,-32,3,127,0,0,0,0,0,0,0,0,0,0,0
0,0,-22,-2042,-105,598,-33,0,105,0,0,0,0,0,0,0,0,0,0,0
0,0,-19,-2028,-104,597,-34,1,122,0,0,0,0,0,0,0,0,0,0,0
0,0,-18,-2030,-102,597,-32,3,127,0,0,0,0,0,0,0,0,0,0,0
0,0,-15,-2035,-107,596,-34,3,117,0,0,0,0,0,0,0,0,0,0,0
0,0,-24,-2035,-101,596,-34,4,115,0,0,0,0,0,0,0,0,0,0,0
0,0,-24,-2031,-98,596,-33,4,123,0,0,0,0,0,0,0,0,0,0,0
0,0,-18,-2040,-97,595,-31,3,121,0,0,0,0,0,0,0,0,0,0,0
0,0,-13,-2043,-106,595,-32,3,113,0,0,0,0,0,0,0,0,0,0,0
0,0,-19,-2031,-116,595,-32,2,108,0,0,0,0,0,0,0,0,0,0,0
0,0,-24,-2032,-115,595,-31,4,106,0,0,0,0,0,0,0,0,0,0,0
0,0,-24,-2038,-109,596,-32,4,106,0,0,0,0,0,0,0,0,0,0,0
0,0,-22,-2036,-97,596,-34,1,117,0,0,0,0,0,0,0,0,0,0,0
0,0,-12,-2029,-104,596,-32,4,132,0,0,0,0,0,0,0,0,0,0,0
0,0,-23,-2037,-108,596,-33,3,107,0,0,0,0,0,0,0,0,0,0,0
0,0,-19,-2030,-99,596,-33,4,128,0,0,0,0,0,0,0,0,0,0,0
0,0,-24,-2032,-110,596,-32,1,108,0,0,0,0,0,0,0,0,0,0,0
0,0,-16,-2034,-106,595,-34,4,118,0,0,0,0,0,0,0,0,0,0,0
0,0,-17,-2038,-120,595,-34,3,98,0,0,0,0,0,0,0,0,0,0,0
0,0,-17,-2036,-106,596,-33,3,116,0,0,0,0,0,0,0,0,0,0,0
0,0,-20,-2033,-112,597,-33,3,111,0,0,0,0,0,0,0,0,0,0,0
0,0,-21,-2028,-113,598,-33,4,116,0,0,0,0,0,0,0,0,0,0,0
0,0,-19,-2027,-107,597,-35,5,123,0,0,0,0,0,0,0,0,0,0,0
0,0,-19,-2036,-101,597,-32,1,119,0,0,0,0,0,0,0,0,0,0,0
0,0,-18,-2042,-110,597,-33,3,106,0,0,0,0,0,0,0,0,0,0,0
0,0,-21,-2024,-104,599,-33,4,130,0,0,0,0,0,0,0,0,0,0,0
0,0,-27,-2033,-109,595,-32,4,107,0,0,0,0,0,0,0,0,0,0,0
0,0,-20,-2039,-101,595,-31,1,114,0,0,0,0,0,0,0,0,0,0,0
0,0,-22,-2037,-108,597,-32,4,111,0,0,0,0,0,0,0,0,0,0,0
0,0,-23,-2031,-111,596,-32,1,109,0,0,0,0,0,0,0,0,0,0,0
0,0,-20,-2037,-118,598,-32,4,104,0,0,0,0,0,0,0,0,0,0,0
0,0,-23,-2032,-110,596,-32,5,113,0,0,0,0,0,0,0,0,0,0,0
0,0,-15,-2035,-108,597,-32,2,118,0,0,0,0,0,0,0,0,0,0,0
0,0,-18,-2038,-106,598,-34,4,115,0,0,0,0,0,0,0,0,0,0,0
0,0,-31,-2028,-104,595,-33,3,111,0,0,0,0,0,0,0,0,0,0,0
0,0,-23,-2036,-99,598,-34,3,118,0,0,0,0,0,0,0,0,0,0,0
0,0,-27,-2034,-103,596,-33,1,109,0,0,0,0,0,0,0,0,0,0,0
0,0,-23,-2035,-116,598,-34,3,102,0,0,0,0,0,0,0,0,0,0,0
0,0,-18,-2029,-110,596,-32,5,121,0,0,0,0,0,0,0,0,0,0,0
0,0,-20,-2029,-112,596,-31,3,116,0,0,0,0,0,0,0,0,0,0,0
0,0,-14,-2027,-117,595,-33,3,116,0,0,0,0,0,0,0,0,0,0,0
0,0,-13,-2027,-111,597,-32,4,127,0,0,0,0,0,0,0,0,0,0,0
0,0,-17,-2036,-106,596,-33,2,115,0,0,0,0,0,0,0,0,0,0,0
0,0,-18,-2033,-111,596,-33,3,113,0,0,0,0,0,0,0,0,0,0,0
0,0,-18,-2035,-112,596,-33,4,111,0,0,0,0,0,0,0,0,0,0,0
0,0,-18,-2035,-104,597,-33,2,118,0,0,0,0,0,0,0,0,0,0,0
0,0,-23,-2025,-105,597,-33,3,123,0,0,0,0,0,0,0,0,0,0,0
0,0,-19,-2031,-114,597,-32,1,111,0,0,0,0,0,0,0,0,0,0,0
0,0,-23,-2030,-119,595,-32,4,104,0,0,0,0,0,0,0,0,0,0,0
0,0,-26,-2026,-106,596,-33,3,117,0,0,0,0,0,0,0,0,0,0,0
0,0,-14,-2030,-104,596,-34,2,125,0,0,0,0,0,0,0,0,0,0,0
0,0,-15,-2020,-112,596,-33,4,129,0,0,0,0,0,0,0,0,0,0,0
0,0,-16,-2029,-113,596,-32,4,119,0,0,0,0,0,0,0,0,0,0,0
0,0,-26,-2034,-110,595,-33,5,106,0,0,0,0,0,0,0,0,0,0,0
0,0,-22,-2033,-112,594,-33,4,107,0,0,0,0,0,0,0,0,0,0,0
0,0,-25,-2030,-100,597,-32,3,122,0,0,0,0,0,0,0,0,0,0,0
0,0,-17,-2041,-101,596,-32,5,119,0,0,0,0,0,0,0,0,0,0,0
0,0,-21,-2023,-108,595,-33,3,122,0,0,0,0,0,0,0,0,0,0,0
0,0,-20,-2030,-103,595,-32,0,119,0,0,0,0,0,0,0,0,0,0,0
0,0,-24,-2034,-100,596,-31,0,116,0,0,0,0,0,0,0,0,0,0,0
0,0,-14,-2026,-102,597,-32,2,134,0,0,0,0,0,0,0,0,0,0,0
0,0,-14,-2034,-105,597,-33,3,123,0,0,0,0,0,0,0,0,0,0,0
0,0,-21,-2039,-112,597,-33,5,106,0,0,0,0,0,0,0,0,0,0,0
0,0,-19,-2028,-110,596,-34,1,115,0,0,0,0,0,0,0,0,0,0,0
0,0,-22,-2030,-113,596,-34,5,111,0,0,0,0,0,0,0,0,0,0,0
0,0,-17,-2042,-101,596,-34,3,114,0,0,0,0,0,0,0,0,0,0,0
0,0,-19,-2038,-102,597,-34,2,115,0,0,0,0,0,0,0,0,0,0,0
0,0,-19,-2029,-96,596,-34,2,129,0,0,0,0,0,0,0,0,0,0,0
0,0,-17,-2030,-101,597,-34,3,127,0,0,0,0,0,0,0,0,0,0,0
0,0,-17,-2033,-104,597,-34,4,122,0,0,0,0,0,0,0,0,0,0,0
0,0,-15,-2027,-98,596,-34,2,133,0,0,0,0,0,0,0,0,0,0,0
0,0,-20,-2029,-100,596,-33,4,127,0,0,0,0,0,0,0,0,0,0,0
0,0,-19,-2033,-104,597,-34,4,120,0,0,0,0,0,0,0,0,0,0,0
0,0,-27,-2033,-114,596,-34,3,100,0,0,0,0,0,0,0,0,0,0,0
0,0,-24,-2031,-109,595,-32,3,111,0,0,0,0,0,0,0,0,0,0,0
0,0,-23,-2025,-114,596,-32,4,115,0,0,0,0,0,0,0,0,0,0,0
0,0,-21,-2028,-107,594,-32,3,118,0,0,0,0,0,0,0,0,0,0,0
0,0,-25,-2035,-109,596,-33,4,107,0,0,0,0,0,0,0,0,0,0,0
0,0,-18,-2031,-116,596,-32,4,112,0,0,0,0,0,0,0,0,0,0,0
0,0,-17,-2025,-108,597,-33,4,127,0,0,0,0,0,0,0,0,0,0,0
0,0,-17,-2029,-107,596,-34,3,121,0,0,0,0,0,0,0,0,0,0,0
0,0,-12,-2022,-97,596,-34,3,143,0,0,0,0,0,0,0,0,0,0,0
0,0,-13,-2027,-97,596,-32,2,138,0,0,0,0,0,0,0,0,0,0,0
0,0,-18,-2023,-109,595,-33,3,124,0,0,0,0,0,0,0,0,0,0,0
0,0,-19,-2033,-112,596,-34,5,112,0,0,0,0,0,0,0,0,0,0,0
0,0,-18,-2029,-101,597,-33,1,126,0,0,0,0,0,0,0,0,0,0,0
0,0,-31,-2030,-106,596,-33,2,107,0,0,0,0,0,0,0,0,0,0,0
0,0,-16,-2031,-110,596,-31,4,121,0,0,0,0,0,0,0,0,0,0,0
0,0,-20,-2027,-104,597,-34,1,122,0,0,0,0,0,0,0,0,0,0,0
0,0,-18,-2033,-108,595,-33,3,115,0,0,0,0,0,0,0,0,0,0,0
0,0,-18,-2029,-99,596,-34,4,129,0,0,0,0,0,0,0,0,0,0,0
0,0,-24,-2029,-99,595,-33,4,123,0,0,0,0,0,0,0,0,0,0,0
0,0,-24,-2029,-104,596,-32,4,120,0,0,0,0,0,0,0,0,0,0,0
0,0,-22,-2030,-98,596,-34,4,125,0,0,0,0,0,0,0,0,0,0,0
0,0,-22,-2029,-99,596,-33,2,124,0,0,0,0,0,0,0,0,0,0,0
0,0,-14,-2036,-102,597,-33,3,124,0,0,0,0,0,0,0,0,0,0,0
0,0,-21,-2035,-109,596,-32,3,111,0,0,0,0,0,0,0,0,0,0,0
0,0,-16,-2030,-113,597,-33,3,117,0,0,0,0,0,0,0,0,0,0,0
0,0,-17,-2024,-104,597,-34,4,131,0,0,0,0,0,0,0,0,0,0,0
0,0,-17,-2031,-99,596,-33,3,128,0,0,0,0,0,0,0,0,0,0,0
0,0,-19,-2036,-107,595,-32,4,114,0,0,0,0,0,0,0,0,0,0,0
0,0,-21,-2024,-106,596,-33,3,124,0,0,0,0,0,0,0,0,0,0,0
0,0,-14,-2036,-114,596,-32,5,114,0,0,0,0,0,0,0,0,0,0,0
0,0,-29,-2030,-102,595,-34,4,113,0,0,0,0,0,0,0,0,0,0,0
0,0,-20,-2036,-114,596,-33,2,104,0,0,0,0,0,0,0,0,0,0,0
0,0,-17,-2035,-104,596,-33,2,118,0,0,0,0,0,0,0,0,0,0,0
0,0,-20,-2036,-107,595,-34,4,111,0,0,0,0,0,0,0,0,0,0,0
0,0,-18,-2027,-105,598,-36,3,124,0,0,0,0,0,0,0,0,0,0,0
0,0,-27,-2031,-102,595,-32,3,115,0,0,0,0,0,0,0,0,0,0,0
0,0,-22,-2032,-113,597,-32,2,109,0,0,0,0,0,0,0,0,0,0,0
0,0,-20,-2028,-96,596,-33,1,129,0,0,0,0,0,0,0,0,0,0,0
0,0,-24,-2031,-99,597,-32,2,122,0,0,0,0,0,0,0,0,0,0,0
0,0,-22,-2037,-102,596,-34,2,112,0,0,0,0,0,0,0,0,0,0,0
0,0,-21,-2028,-115,596,-35,4,110,0,0,0,0,0,0,0,0,0,0,0
0,0,-23,-2036,-108,595,-34,3,106,0,0,0,0,0,0,0,0,0,0,0
0,0,-31,-2030,-102,595,-32,4,113,0,0,0,0,0,0,0,0,0,0,0
0,0,-18,-2032,-102,597,-32,2,124,0,0,0,0,0,0,0,0,0,0,0
0,0,-17,-2038,-112,597,-34,3,108,0,0,0,0,0,0,0,0,0,0,0
0,0,-15,-2034,-110,597,-33,2,116,0,0,0,0,0,0,0,0,0,0,0
0,0,-15,-2032,-99,595,-33,4,129,0,0,0,0,0,0,0,0,0,0,0
0,0,-18,-2028,-109,596,-34,3,119,0,0,0,0,0,0,0,0,0,0,0
0,0,-18,-2031,-114,596,-32,2,112,0,0,0,0,0,0,0,0,0,0,0
0,0,-13,-2033,-90,596,-33,1,137,0,0,0,0,0,0,0,0,0,0,0
0,0,-18,-2026,-103,595,-33,4,128,0,0,0,0,0,0,0,0,0,0,0
0,0,-18,-2029,-115,595,-32,3,113,0,0,0,0,0,0,0,0,0,0,0
0,0,-22,-2035,-114,596,-34,4,104,0,0,0,0,0,0,0,0,0,0,0
0,0,-17,-2041,-101,595,-33,4,116,0,0,0,0,0,0,0,0,0,0,0
0,0,-16,-2032,-110,596,-33,2,116,0,0,0,0,0,0,0,0,0,0,0
0,0,-18,-2037,-100,597,-35,1,117,0,0,0,0,0,0,0,0,0,0,0
0,0,-22,-2039,-110,596,-34,4,104,0,0,0,0,0,0,0,0,0,0,0
0,0,-21,-2037,-104,595,-34,4,112,0,0,0,0,0,0,0,0,0,0,0
0,0,-19,-2032,-107,596,-32,2,117,0,0,0,0,0,0,0,0,0,0,0
0,0,-21,-2034,-111,595,-33,4,109,0,0,0,0,0,0,0,0,0,0,0
0,0,-9,-2029,-106,595,-32,3,131,0,0,0,0,0,0,0,0,0,0,0
0,0,-22,-2027,-97,594,-33,3,127,0,0,0,0,0,0,0,0,0,0,0
0,0,-17,-2030,-99,596,-32,3,130,0,0,0,0,0,0,0,0,0,0,0
0,0,-19,-2037,-95,596,-33,3,124,0,0,0,0,0,0,0,0,0,0,0
0,0,-16,-2034,-111,596,-33,1,112,0,0,0,0,0,0,0,0,0,0,0
0,0,-17,-2030,-115,597,-34,4,114,0,0,0,0,0,0,0,0,0,0,0
0,0,-22,-2035,-90,596,-34,2,126,0,0,0,0,0,0,0,0,0,0,0
0,0,-24,-2038,-103,597,-33,5,113,0,0,0,0,0,0,0,0,0,0,0
0,0,-14,-2033,-109,596,-34,3,118,0,0,0,0,0,0,0,0,0,0,0
0,0,-20,-2038,-110,597,-34,3,107,0,0,0,0,0,0,0,0,0,0,0
0,0,-17,-2037,-111,595,-34,2,107,0,0,0,0,0,0,0,0,0,0,0
0,0,-13,-2020,-106,596,-35,3,134,0,0,0,0,0,0,0,0,0,0,0
0,0,-15,-2030,-109,596,-32,3,122,0,0,0,0,0,0,0,0,0,0,0
0,0,-15,-2029,-102,597,-34,4,130,0,0,0,0,0,0,0,0,0,0,0
0,0,-17,-2033,-107,595,-33,3,117,0,0,0,0,0,0,0,0,0,0,0
0,0,-24,-2031,-106,596,-33,2,113,0,0,0,0,0,0,0,0,0,0,0
0,0,-26,-2030,-97,595,-33,3,121,0,0,0,0,0,0,0,0,0,0,0
0,0,-22,-2030,-116,595,-33,4,107,0,0,0,0,0,0,0,0,0,0,0
0,0,-22,-2020,-108,595,-34,2,122,0,0,0,0,0,0,0,0,0,0,0
0,0,-19,-2028,-104,596,-34,4,124,0,0,0,0,0,0,0,0,0,0,0
0,0,-21,-2032,-111,595,-34,4,110,0,0,0,0,0,0,0,0,0,0,0
0,0,-13,-2029,-118,597,-33,3,116,0,0,0,0,0,0,0,0,0,0,0
0,0,-20,-2031,-100,595,-33,3,123,0,0,0,0,0,0,0,0,0,0,0
0,0,-21,-2029,-104,596,-32,2,121,0,0,0,0,0,0,0,0,0,0,0
0,0,-17,-2028,-101,596,-34,3,128,0,0,0,0,0,0,0,0,0,0,0
0,0,-25,-2024,-118,596,-35,5,108,0,0,0,0,0,0,0,0,0,0,0
0,0,-22,-2031,-108,595,-34,3,112,0,0,0,0,0,0,0,0,0,0,0
0,0,-20,-2027,-99,595,-35,3,126,0,0,0,0,0,0,0,0,0,0,0
0,0,-23,-2028,-94,598,-32,3,133,0,0,0,0,0,0,0,0,0,0,0
0,0,-23,-2034,-111,597,-34,3,107,0,0,0,0,0,0,0,0,0,0,0
0,0,-18,-2031,-106,597,-34,1,118,0,0,0,0,0,0,0,0,0,0,0
0,0,-18,-2028,-98,596,-33,1,129,0,0,0,0,0,0,0,0,0,0,0
0,0,-22,-2034,-96,597,-33,4,125,0,0,0,0,0,0,0,0,0,0,0
0,0,-19,-2026,-112,596,-33,3,118,0,0,0,0,0,0,0,0,0,0,0
0,0,-19,-2035,-109,596,-33,4,113,0,0,0,0,0,0,0,0,0,0,0
0,0,-16,-2028,-102,596,-33,4,130,0,0,0,0,0,0,0,0,0,0,0
0,0,-15,-2034,-107,596,-33,1,117,0,0,0,0,0,0,0,0,0,0,0
0,0,-14,-2029,-111,595,-33,1,118,0,0,0,0,0,0,0,0,0,0,0
0,0,-18,-2033,-110,595,-33,2,112,0,0,0,0,0,0,0,0,0,0,0
0,0,-13,-2032,-108,595,-33,3,121,0,0,0,0,0,0,0,0,0,0,0
0,0,-18,-2032,-100,595,-33,3,124,0,0,0,0,0,0,0,0,0,0,0
0,0,-23,-2034,-106,595,-34,4,111,0,0,0,0,0,0,0,0,0,0,0
0,0,-19,-2032,-102,595,-33,3,121,0,0,0,0,0,0,0,0,0,0,0
0,0,-20,-2037,-106,595,-32,3,112,0,0,0,0,0,0,0,0,0,0,0
0,0,-14,-2033,-102,595,-34,2,123,0,0,0,0,0,0,0,0,0,0,0
0,0,-15,-2031,-111,595,-32,4,119,0,0,0,0,0,0,0,0,0,0,0
0,0,-19,-2027,-111,596,-34,2,116,0,0,0,0,0,0,0,0,0,0,0
0,0,-16,-2024,-110,596,-34,4,125,0,0,0,0,0,0,0,0,0,0,0
0,0,-12,-2028,-108,598,-33,3,129,0,0,0,0,0,0,0,0,0,0,0
0,0,-20,-2041,-105,597,-33,1,108,0,0,0,0,0,0,0,0,0,0,0
0,0,-24,-2027,-96,595,-33,5,129,0,0,0,0,0,0,0,0,0,0,0
0,0,-22,-2029,-101,597,-31,3,126,0,0,0,0,0,0,0,0,0,0,0
0,0,-18,-2024,-107,595,-31,5,129,0,0,0,0,0,0,0,0,0,0,0
0,0,-15,-2042,-104,595,-32,4,115,0,0,0,0,0,0,0,0,0,0,0
0,0,-19,-2030,-105,597,-31,4,125,0,0,0,0,0,0,0,0,0,0,0
0,0,-22,-2032,-110,597,-32,3,113,0,0,0,0,0,0,0,0,0,0,0
0,0,-16,-2022,-117,596,-33,4,121,0,0,0,0,0,0,0,0,0,0,0
0,0,-21,-2033,-106,596,-33,2,114,0,0,0,0,0,0,0,0,0,0,0
0,0,-22,-2038,-106,597,-33,3,110,0,0,0,0,0,0,0,0,0,0,0
0,0,-15,-2037,-97,595,-33,3,125,0,0,0,0,0,0,0,0,0,0,0
0,0,-17,-2028,-114,598,-35,2,115,0,0,0,0,0,0,0,0,0,0,0
0,0,-16,-2033,-106,596,-33,3,120,0,0,0,0,0,0,0,0,0,0,0
0,0,-14,-2038,-102,597,-34,2,120,0,0,0,0,0,0,0,0,0,0,0
0,0,-13,-2038,-101,595,-34,3,121,0,0,0,0,0,0,0,0,0,0,0
0,0,-26,-2033,-102,596,-32,3,115,0,0,0,0,0,0,0,0,0,0,0
0,0,-22,-2031,-100,596,-34,3,121,0,0,0,0,0,0,0,0,0,0,0
0,0,-24,-2034,-108,597,-31,3,112,0,0,0,0,0,0,0,0,0,0,0
0,0,-13,-2027,-111,597,-33,3,125,0,0,0,0,0,0,0,0,0,0,0
0,0,-14,-2029,-99,596,-32,3,134,0,0,0,0,0,0,0,0,0,0,0
0,0,-20,-2027,-111,596,-32,2,117,0,0,0,0,0,0,0,0,0,0,0
0,0,-21,-2036,-105,594,-33,4,112,0,0,0,0,0,0,0,0,0,0,0
0,0,-23,-2033,-111,595,-33,3,107,0,0,0,0,0,0,0,0,0,0,0
0,0,-24,-2027,-103,597,-32,2,122,0,0,0,0,0,0,0,0,0,0,0
0,0,-18,-2029,-101,595,-32,3,127,0,0,0,0,0,0,0,0,0,0,0
0,0,-22,-2029,-100,596,-31,1,124,0,0,0,0,0,0,0,0,0,0,0
0,0,-17,-2023,-106,594,-33,2,126,0,0,0,0,0,0,0,0,0,0,0
0,0,-17,-2028,-114,596,-32,4,118,0,0,0,0,0,0,0,0,0,0,0
0,0,-17,-2023,-115,597,-32,3,122,0,0,0,0,0,0,0,0,0,0,0
0,0,-21,-2030,-105,596,-34,5,120,0,0,0,0,0,0,0,0,0,0,0
0,0,-15,-2029,-99,596,-35,2,129,0,0,0,0,0,0,0,0,0,0,0
0,0,-23,-2033,-109,596,-33,3,110,0,0,0,0,0,0,0,0,0,0,0
0,0,-19,-2026,-110,596,-32,3,121,0,0,0,0,0,0,0,0,0,0,0
0,0,-19,-2027,-116,597,-33,3,114,0,0,0,0,0,0,0,0,0,0,0
0,0,-19,-2031,-112,598,-33,2,114,0,0,0,0,0,0,0,0,0,0,0
0,0,-15,-2037,-111,595,-34,3,110,0,0,0,0,0,0,0,0,0,0,0
0,0,-18,-2037,-108,598,-32,3,115,0,0,0,0,0,0,0,0,0,0,0
0,0,-21,-2030,-107,597,-33,4,119,0,0,0,0,0,0,0,0,0,0,0
0,0,-22,-2035,-111,597,-32,5,111,0,0,0,0,0,0,0,0,0,0,0
0,0,-22,-2037,-99,596,-31,3,119,0,0,0,0,0,0,0,0,0,0,0
0,0,-16,-2028,-111,595,-31,4,122,0,0,0,0,0,0,0,0,0,0,0
0,0,-17,-2030,-117,597,-33,3,112,0,0,0,0,0,0,0,0,0,0,0
0,0,-25,-2033,-96,597,-35,3,120,0,0,0,0,0,0,0,0,0,0,0
0,0,-24,-2024,-100,597,-35,2,125,0,0,0,0,0,0,0,0,0,0,0
0,0,-11,-2026,-97,595,-34,3,139,0,0,0,0,0,0,0,0,0,0,0
0,0,-18,-2029,-103,595,-32,3,125,0,0,0,0,0,0,0,0,0,0,0
0,0,-20,-2031,-106,595,-32,2,117,0,0,0,0,0,0,0,0,0,0,0
0,0,-23,-2031,-105,596,-33,3,116,0,0,0,0,0,0,0,0,0,0,0
0,0,-12,-2036,-113,597,-34,2,113,0,0,0,0,0,0,0,0,0,0,0
0,0,-22,-2034,-106,596,-34,5,114,0,0,0,0,0,0,0,0,0,0,0
0,0,-25,-2033,-99,598,-35,4,119,0,0,0,0,0,0,0,0,0,0,0
0,0,-18,-2028,-104,595,-35,5,124,0,0,0,0,0,0,0,0,0,0,0
0,0,-26,-2022,-99,595,-33,4,128,0,0,0,0,0,0,0,0,0,0,0
0,0,-12,-2024,-107,595,-35,3,129,0,0,0,0,0,0,0,0,0,0,0
0,0,-20,-2028,-111,596,-33,2,115,0,0,0,0,0,0,0,0,0,0,0
0,0,-13,-2038,-103,596,-34,2,119,0,0,0,0,0,0,0,0,0,0,0
0,0,-19,-2030,-101,596,-34,2,123,0,0,0,0,0,0,0,0,0,0,0
0,0,-20,-2030,-109,594,-34,2,112,0,0,0,0,0,0,0,0,0,0,0
0,0,-24,-2034,-116,599,-34,2,102,0,0,0,0,0,0,0,0,0,0,0
0,0,-17,-2038,-101,596,-32,2,119,0,0,0,0,0,0,0,0,0,0,0
0,0,-21,-2034,-102,595,-32,3,118,0,0,0,0,0,0,0,0,0,0,0
0,0,-21,-2033,-96,595,-33,4,125,0,0,0,0,0,0,0,0,0,0,0
0,0,-20,-2028,-111,597,-31,3,119,0,0,0,0,0,0,0,0,0,0,0
0,0,-18,-2032,-109,594,-33,4,115,0,0,0,0,0,0,0,0,0,0,0
0,0,-20,-2037,-111,595,-34,4,106,0,0,0,0,0,0,0,0,0,0,0
0,0,-18,-2035,-99,596,-33,5,125,0,0,0,0,0,0,0,0,0,0,0
0,0,-27,-2027,-99,598,-33,4,125,0,0,0,0,0,0,0,0,0,0,0
0,0,-22,-2027,-104,597,-32,3,124,0,0,0,0,0,0,0,0,0,0,0
0,0,-18,-2029,-112,596,-32,4,118,0,0,0,0,0,0,0,0,0,0,0
0,0,-16,-2039,-109,594,-34,3,108,0,0,0,0,0,0,0,0,0,0,0
0,0,-25,-2033,-113,595,-33,3,103,0,0,0,0,0,0,0,0,0,0,0
0,0,-16,-2033,-112,596,-34,4,114,0,0,0,0,0,0,0,0,0,0,0
0,0,-21,-2031,-92,594,-33,3,129,0,0,0,0,0,0,0,0,0,0,0
0,0,-22,-2038,-97,595,-33,3,117,0,0,0,0,0,0,0,0,0,0,0
0,0,-15,-2039,-100,596,-31,3,123,0,0,0,0,0,0,0,0,0,0,0
0,0,-25,-2027,-109,594,-33,4,113,0,0,0,0,0,0,0,0,0,0,0
0,0,-24,-2030,-109,595,-33,2,110,0,0,0,0,0,0,0,0,0,0,0
0,0,-21,-2033,-101,597,-33,4,122,0,0,0,0,0,0,0,0,0,0,0
0,0,-19,-2045,-105,595,-32,4,107,0,0,0,0,0,0,0,0,0,0,0
0,0,-20,-2029,-99,596,-34,3,126,0,0,0,0,0,0,0,0,0,0,0
0,0,-21,-2029,-107,594,-32,2,116,0,0,0,0,0,0,0,0,0,0,0
0,0,-21,-2037,-104,596,-33,4,114,0,0,0,0,0,0,0,0,0,0,0
0,0,-23,-2035,-109,596,-32,2,108,0,0,0,0,0,0,0,0,0,0,0
0,0,-16,-2031,-103,596,-32,3,126,0,0,0,0,0,0,0,0,0,0,0
0,0,-14,-2033,-111,595,-32,3,117,0,0,0,0,0,0,0,0,0,0,0
0,0,-24,-2036,-117,595,-32,4,99,0,0,0,0,0,0,0,0,0,0,0
0,0,-22,-2033,-107,596,-31,3,115,0,0,0,0,0,0,0,0,0,0,0
0,0,-27,-2027,-108,596,-31,3,115,0,0,0,0,0,0,0,0,0,0,0
0,0,-16,-2027,-117,594,-32,2,113,0,0,0,0,0,0,0,0,0,0,0
0,0,-18,-2021,-103,597,-33,4,135,0,0,0,0,0,0,0,0,0,0,0
0,0,-17,-2028,-107,595,-33,4,123,0,0,0,0,0,0,0,0,0,0,0
0,0,-25,-2034,-107,595,-33,3,108,0,0,0,0,0,0,0,0,0,0,0
0,0,-16,-2030,-110,596,-32,5,122,0,0,0,0,0,0,0,0,0,0,0
0,0,-14,-2036,-109,595,-33,4,116,0,0,0,0,0,0,0,0,0,0,0
0,0,-20,-2033,-115,596,-32,5,110,0,0,0,0,0,0,0,0,0,0,0
0,0,-22,-2028,-105,597,-33,1,119,0,0,0,0,0,0,0,0,0,0,0
0,0,-28,-2037,-97,594,-32,2,111,0,0,0,0,0,0,0,0,0,0,0
0,0,-24,-2028,-107,596,-34,3,115,0,0,0,0,0,0,0,0,0,0,0
0,0,-19,-2025,-110,595,-33,3,120,0,0,0,0,0,0,0,0,0,0,0
0,0,-23,-2034,-110,597,-34,3,108,0,0,0,0,0,0,0,0,0,0,0
0,0,-15,-2041,-124,595,-33,3,94,0,0,0,0,0,0,0,0,0,0,0
0,0,-22,-2039,-104,596,-31,3,112,0,0,0,0,0,0,0,0,0,0,0
0,0,-21,-2031,-101,596,-33,4,123,0,0,0,0,0,0,0,0,0,0,0
0,0,-25,-2036,-102,594,-34,2,108,0,0,0,0,0,0,0,0,0,0,0
0,0,-19,-2032,-101,596,-34,4,123,0,0,0,0,0,0,0,0,0,0,0
0,0,-10,-2033,-108,594,-34,3,121,0,0,0,0,0,0,0,0,0,0,0
0,0,-19,-2032,-104,594,-31,3,120,0,0,0,0,0,0,0,0,0,0,0
0,0,-17,-2040,-101,594,-32,4,117,0,0,0,0,0,0,0,0,0,0,0
0,0,-29,-2027,-101,596,-32,3,119,0,0,0,0,0,0,0,0,0,0,0
0,0,-18,-2032,-102,597,-33,3,124,0,0,0,0,0,0,0,0,0,0,0
0,0,-28,-2034,-107,597,-33,1,105,0,0,0,0,0,0,0,0,0,0,0
0,0,-23,-2037,-100,596,-34,4,115,0,0,0,0,0,0,0,0,0,0,0
0,0,-20,-2040,-111,596,-33,3,104,0,0,0,0,0,0,0,0,0,0,0
0,0,-9,-2035,-99,596,-33,2,131,0,0,0,0,0,0,0,0,0,0,0
0,0,-20,-2037,-105,596,-33,2,112,0,0,0,0,0,0,0,0,0,0,0
0,0,-25,-2031,-111,595,-33,1,105,0,0,0,0,0,0,0,0,0,0,0
0,0,-18,-2032,-98,596,-34,2,125,0,0,0,0,0,0,0,0,0,0,0
0,0,-20,-2036,-107,595,-32,4,113,0,0,0,0,0,0,0,0,0,0,0
0,0,-23,-2030,-94,596,-32,4,130,0,0,0,0,0,0,0,0,0,0,0
0,0,-19,-2029,-103,598,-34,5,127,0,0,0,0,0,0,0,0,0,0,0
0,0,-18,-2028,-111,597,-35,3,117,0,0,0,0,0,0,0,0,0,0,0
0,0,-16,-2025,-107,596,-34,2,125,0,0,0,0,0,0,0,0,0,0,0
0,0,-20,-2039,-116,598,-34,4,102,0,0,0,0,0,0,0,0,0,0,0
0,0,-16,-2025,-108,595,-33,3,125,0,0,0,0,0,0,0,0,0,0,0
0,0,-17,-2034,-108,595,-32,3,116,0,0,0,0,0,0,0,0,0,0,0
0,0,-21,-2032,-112,595,-32,2,109,0,0,0,0,0,0,0,0,0,0,0
0,0,-19,-2035,-95,596,-32,3,127,0,0,0,0,0,0,0,0,0,0,0
0,0,-18,-2028,-107,595,-33,4,122,0,0,0,0,0,0,0,0,0,0,0
0,0,-16,-2031,-107,596,-32,2,121,0,0,0,0,0,0,0,0,0,0,0
0,0,-22,-2030,-107,596,-31,3,118,0,0,0,0,0,0,0,0,0,0,0
0,0,-21,-2039,-109,596,-34,3,105,0,0,0,0,0,0,0,0,0,0,0
0,0,-17,-2038,-100,595,-33,1,117,0,0,0,0,0,0,0,0,0,0,0
0,0,-19,-2033,-108,595,-33,1,112,0,0,0,0,0,0,0,0,0,0,0
0,0,-18,-2034,-112,596,-32,3,112,0,0,0,0,0,0,0,0,0,0,0
0,0,-16,-2027,-101,596,-33,3,131,0,0,0,0,0,0,0,0,0,0,0
0,0,-14,-2034,-101,595,-33,4,126,0,0,0,0,0,0,0,0,0,0,0
0,0,-25,-2035,-102,598,-33,3,115,0,0,0,0,0,0,0,0,0,0,0
0,0,-19,-2036,-110,595,-33,2,108,0,0,0,0,0,0,0,0,0,0,0
0,0,-18,-2039,-113,595,-34,4,104,0,0,0,0,0,0,0,0,0,0,0
0,0,-29,-2034,-120,596,-33,2,91,0,0,0,0,0,0,0,0,0,0,0
0,0,-24,-2038,-112,597,-31,3,104,0,0,0,0,0,0,0,0,0,0,0
0,0,-17,-2034,-102,596,-32,3,123,0,0,0,0,0,0,0,0,0,0,0
0,0,-21,-2035,-107,595,-32,3,112,0,0,0,0,0,0,0,0,0,0,0
0,0,-18,-2036,-104,595,-33,3,116,0,0,0,0,0,0,0,0,0,0,0
0,0,-16,-2033,-108,595,-33,2,116,0,0,0,0,0,0,0,0,0,0,0
0,0,-25,-2022,-100,596,-32,2,128,0,0,0,0,0,0,0,0,0,0,0
0,0,-16,-2025,-99,597,-33,4,137,0,0,0,0,0,0,0,0,0,0,0
0,0,-17,-2028,-108,597,-32,4,125,0,0,0,0,0,0,0,0,0,0,0
0,0,-15,-2027,-104,596,-33,3,129,0,0,0,0,0,0,0,0,0,0,0
0,0,-17,-2028,-104,596,-34,2,124,0,0,0,0,0,0,0,0,0,0,0
0,0,-18,-2033,-108,596,-33,3,116,0,0,0,0,0,0,0,0,0,0,0
0,0,-19,-2027,-111,597,-33,3,119,0,0,0,0,0,0,0,0,0,0,0
0,0,-27,-2025,-98,595,-33,2,123,0,0,0,0,0,0,0,0,0,0,0
0,0,-22,-2036,-106,596,-32,5,114,0,0,0,0,0,0,0,0,0,0,0
0,0,-23,-2029,-115,595,-33,2,106,0,0,0,0,0,0,0,0,0,0,0
0,0,-18,-2027,-106,597,-32,3,126,0,0,0,0,0,0,0,0,0,0,0
0,0,-25,-2042,-102,596,-34,3,105,0,0,0,0,0,0,0,0,0,0,0
0,0,-17,-2027,-106,597,-33,2,125,0,0,0,0,0,0,0,0,0,0,0
0,0,-14,-2037,-110,596,-35,2,111,0,0,0,0,0,0,0,0,0,0,0
0,0,-17,-2039,-105,597,-33,3,115,0,0,0,0,0,0,0,0,0,0,0
0,0,-20,-2035,-110,597,-32,1,110,0,0,0,0,0,0,0,0,0,0,0
0,0,-15,-2035,-116,596,-32,3,110,0,0,0,0,0,0,0,0,0,0,0
0,0,-15,-2031,-113,597,-33,2,116,0,0,0,0,0,0,0,0,0,0,0
0,0,-20,-2029,-110,596,-35,3,114,0,0,0,0,0,0,0,0,0,0,0
0,0,-23,-2033,-100,596,-33,3,119,0,0,0,0,0,0,0,0,0,0,0
0,0,-10,-2027,-103,596,-33,3,135,0,0,0,0,0,0,0,0,0,0,0
0,0,-21,-2031,-116,596,-32,3,108,0,0,0,0,0,0,0,0,0,0,0
0,0,-19,-2025,-111,596,-32,2,120,0,0,0,0,0,0,0,0,0,0,0
0,0,-16,-2034,-100,597,-32,3,127,0,0,0,0,0,0,0,0,0,0,0
0,0,-17,-2035,-103,597,-31,2,122,0,0,0,0,0,0,0,0,0,0,0
0,0,-25,-2023,-108,595,-33,3,118,0,0,0,0,0,0,0,0,0,0,0
0,0,-20,-2025,-98,596,-33,3,132,0,0,0,0,0,0,0,0,0,0,0
0,0,-19,-2033,-110,595,-35,3,110,0,0,0,0,0,0,0,0,0,0,0
0,0,-27,-2029,-110,595,-33,3,108,0,0,0,0,0,0,0,0,0,0,0
0,0,-25,-2030,-106,596,-32,2,114,0,0,0,0,0,0,0,0,0,0,0
0,0,-18,-2033,-109,596,-32,3,116,0,0,0,0,0,0,0,0,0,0,0
0,0,-20,-2040,-115,596,-34,2,98,0,0,0,0,0,0,0,0,0,0,0
0,0,-18,-2042,-102,597,-34,2,112,0,0,0,0,0,0,0,0,0,0,0
0,0,-14,-2026,-107,597,-33,4,130,0,0,0,0,0,0,0,0,0,0,0
0,0,-13,-2032,-106,597,-32,3,126,0,0,0,0,0,0,0,0,0,0,0
0,0,-19,-2031,-112,596,-32,3,114,0,0,0,0,0,0,0,0,0,0,0
0,0,-23,-2025,-109,595,-33,2,116,0,0,0,0,0,0,0,0,0,0,0
0,0,-20,-2031,-105,595,-35,1,114,0,0,0,0,0,0,0,0,0,0,0
0,0,-16,-2032,-106,597,-32,4,124,0,0,0,0,0,0,0,0,0,0,0
0,0,-20,-2038,-105,597,-32,3,114,0,0,0,0,0,0,0,0,0,0,0
0,0,-15,-2029,-117,597,-33,1,113,0,0,0,0,0,0,0,0,0,0,0
0,0,-24,-2030,-98,594,-33,2,120,0,0,0,0,0,0,0,0,0,0,0
0,0,-24,-2033,-100,595,-34,2,115,0,0,0,0,0,0,0,0,0,0,0
0,0,-21,-2033,-99,597,-34,3,122,0,0,0,0,0,0,0,0,0,0,0
0,0,-20,-2035,-107,594,-32,2,111,0,0,0,0,0,0,0,0,0,0,0
0,0,-27,-2028,-109,596,-33,4,112,0,0,0,0,0,0,0,0,0,0,0
0,0,-23,-2030,-109,596,-32,4,115,0,0,0,0,0,0,0,0,0,0,0
0,0,-20,-2033,-105,597,-31,4,121,0,0,0,0,0,0,0,0,0,0,0
0,0,-23,-2029,-110,598,-33,2,114,0,0,0,0,0,0,0,0,0,0,0
0,0,-20,-2032,-102,596,-33,4,122,0,0,0,0,0,0,0,0,0,0,0
0,0,-16,-2034,-111,597,-32,2,115,0,0,0,0,0,0,0,0,0,0,0
0,0,-19,-2031,-114,597,-33,3,112,0,0,0,0,0,0,0,0,0,0,0
0,0,-15,-2029,-110,596,-32,3,122,0,0,0,0,0,0,0,0,0,0,0
0,0,-22,-2030,-112,597,-33,2,111,0,0,0,0,0,0,0,0,0,0,0
0,0,-23,-2027,-114,595,-33,3,110,0,0,0,0,0,0,0,0,0,0,0
0,0,-16,-2031,-103,594,-33,-1,118,0,0,0,0,0,0,0,0,0,0,0
0,0,-9,-2027,-109,597,-32,3,132,0,0,0,0,0,0,0,0,0,0,0
0,0,-21,-2033,-112,595,-34,3,107,0,0,0,0,0,0,0,0,0,0,0
0,0,-16,-2026,-104,596,-34,3,128,0,0,0,0,0,0,0,0,0,0,0
0,0,-23,-2034,-106,597,-33,2,112,0,0,0,0,0,0,0,0,0,0,0
0,0,-22,-2029,-92,597,-33,2,132,0,0,0,0,0,0,0,0,0,0,0
0,0,-18,-2026,-100,595,-34,3,129,0,0,0,0,0,0,0,0,0,0,0
0,0,-23,-2028,-98,595,-32,2,125,0,0,0,0,0,0,0,0,0,0,0
0,0,-14,-2031,-103,595,-33,2,125,0,0,0,0,0,0,0,0,0,0,0
0,0,-19,-2035,-103,597,-34,3,118,0,0,0,0,0,0,0,0,0,0,0
0,0,-17,-2035,-99,594,-31,3,124,0,0,0,0,0,0,0,0,0,0,0
0,0,-22,-2037,-107,597,-35,2,107,0,0,0,0,0,0,0,0,0,0,0
0,0,-18,-2029,-103,596,-33,1,123,0,0,0,0,0,0,0,0,0,0,0
0,0,-14,-2026,-101,594,-32,4,134,0,0,0,0,0,0,0,0,0,0,0
0,0,-23,-2028,-108,596,-33,3,116,0,0,0,0,0,0,0,0,0,0,0
0,0,-18,-2035,-104,595,-31,3,119,0,0,0,0,0,0,0,0,0,0,0
0,0,-22,-2033,-105,596,-33,0,112,0,0,0,0,0,0,0,0,0,0,0
0,0,-22,-2039,-111,595,-33,2,101,0,0,0,0,0,0,0,0,0,0,0
0,0,-23,-2035,-124,596,-33,2,92,0,0,0,0,0,0,0,0,0,0,0
0,0,-11,-2029,-114,597,-33,2,121,0,0,0,0,0,0,0,0,0,0,0
0,0,-18,-2035,-126,596,-34,2,94,0,0,0,0,0,0,0,0,0,0,0
0,0,-13,-2037,-115,594,-32,2,108,0,0,0,0,0,0,0,0,0,0,0
0,0,-19,-2036,-112,595,-32,3,108,0,0,0,0,0,0,0,0,0,0,0
0,0,-19,-2027,-109,596,-33,3,120,0,0,0,0,0,0,0,0,0,0,0
0,0,-23,-2029,-103,595,-33,1,117,0,0,0,0,0,0,0,0,0,0,0
0,0,-25,-2028,-109,595,-33,3,112,0,0,0,0,0,0,0,0,0,0,0
0,0,-18,-2021,-105,596,-34,3,130,0,0,0,0,0,0,0,0,0,0,0
0,0,-19,-2031,-98,596,-31,3,129,0,0,0,0,0,0,0,0,0,0,0
0,0,-25,-2025,-108,596,-34,3,116,0,0,0,0,0,0,0,0,0,0,0
0,0,-19,-2030,-111,595,-33,1,112,0,0,0,0,0,0,0,0,0,0,0
0,0,-15,-2033,-108,596,-33,3,119,0,0,0,0,0,0,0,0,0,0,0
0,0,-15,-2033,-103,596,-32,1,123,0,0,0,0,0,0,0,0,0,0,0
0,0,-19,-2030,-112,597,-33,1,113,0,0,0,0,0,0,0,0,0,0,0
0,0,-22,-2028,-95,595,-33,1,127,0,0,0,0,0,0,0,0,0,0,0
0,0,-17,-2029,-93,595,-34,2,133,0,0,0,0,0,0,0,0,0,0,0
0,0,-14,-2027,-109,597,-32,2,126,0,0,0,0,0,0,0,0,0,0,0
0,0,-20,-2031,-97,595,-34,2,124,0,0,0,0,0,0,0,0,0,0,0
0,0,-22,-2032,-109,594,-33,3,110,0,0,0,0,0,0,0,0,0,0,0
0,0,-25,-2037,-109,598,-33,5,108,0,0,0,0,0,0,0,0,0,0,0
0,0,-26,-2033,-112,594,-33,5,104,0,0,0,0,0,0,0,0,0,0,0
0,0,-21,-2033,-104,598,-32,3,120,0,0,0,0,0,0,0,0,0,0,0
0,0,-17,-2028,-106,596,-33,2,123,0,0,0,0,0,0,0,0,0,0,0
0,0,-13,-2034,-109,595,-34,2,116,0,0,0,0,0,0,0,0,0,0,0
0,0,-21,-2029,-100,596,-33,3,125,0,0,0,0,0,0,0,0,0,0,0
0,0,-23,-2031,-109,596,-33,4,113,0,0,0,0,0,0,0,0,0,0,0
0,0,-25,-2039,-101,596,-32,4,112,0,0,0,0,0,0,0,0,0,0,0
0,0,-22,-2029,-108,595,-33,2,114,0,0,0,0,0,0,0,0,0,0,0
0,0,-27,-2036,-110,595,-33,3,101,0,0,0,0,0,0,0,0,0,0,0
0,0,-18,-2039,-109,595,-33,3,108,0,0,0,0,0,0,0,0,0,0,0
0,0,-10,-2023,-106,597,-32,2,137,0,0,0,0,0,0,0,0,0,0,0
0,0,-14,-2029,-101,596,-33,3,131,0,0,0,0,0,0,0,0,0,0,0
0,0,-23,-2030,-96,595,-35,4,124,0,0,0,0,0,0,0,0,0,0,0
0,0,-15,-2037,-111,596,-32,3,113,0,0,0,0,0,0,0,0,0,0,0
0,0,-24,-2030,-100,596,-30,4,125,0,0,0,0,0,0,0,0,0,0,0
0,0,-20,-2032,-118,595,-32,3,105,0,0,0,0,0,0,0,0,0,0,0
0,0,-26,-2031,-112,598,-31,5,112,0,0,0,0,0,0,0,0,0,0,0
0,0,-16,-2033,-111,596,-33,1,113,0,0,0,0,0,0,0,0,0,0,0
0,0,-17,-2033,-112,595,-32,3,113,0,0,0,0,0,0,0,0,0,0,0
0,0,-18,-2036,-94,596,-34,5,128,0,0,0,0,0,0,0,0,0,0,0
0,0,-21,-2031,-103,596,-33,4,121,0,0,0,0,0,0,0,0,0,0,0
0,0,-19,-2034,-120,595,-32,2,101,0,0,0,0,0,0,0,0,0,0,0
0,0,-19,-2030,-103,596,-34,4,123,0,0,0,0,0,0,0,0,0,0,0
0,0,-22,-2030,-95,596,-34,4,128,0,0,0,0,0,0,0,0,0,0,0
0,0,-19,-2031,-104,596,-34,2,119,0,0,0,0,0,0,0,0,0,0,0
0,0,-16,-2025,-104,597,-32,2,131,0,0,0,0,0,0,0,0,0,0,0
0,0,-11,-2032,-103,596,-32,3,130,0,0,0,0,0,0,0,0,0,0,0
0,0,-17,-2033,-113,598,-33,4,115,0,0,0,0,0,0,0,0,0,0,0
0,0,-20,-2042,-103,596,-33,1,108,0,0,0,0,0,0,0,0,0,0,0
0,0,-24,-2040,-97,598,-33,2,115,0,0,0,0,0,0,0,0,0,0,0
0,0,-24,-2034,-95,596,-33,3,122,0,0,0,0,0,0,0,0,0,0,0
0,0,-19,-2039,-109,596,-33,3,108,0,0,0,0,0,0,0,0,0,0,0
0,0,-18,-2033,-113,597,-31,1,112,0,0,0,0,0,0,0,0,0,0,0
0,0,-26,-2026,-106,597,-32,4,120,0,0,0,0,0,0,0,0,0,0,0
0,0,-20,-2034,-94,596,-33,3,127,0,0,0,0,0,0,0,0,0,0,0
0,0,-21,-2029,-106,597,-33,3,120,0,0,0,0,0,0,0,0,0,0,0
0,0,-24,-2030,-103,597,-32,3,120,0,0,0,0,0,0,0,0,0,0,0
0,0,-22,-2032,-106,597,-33,3,116,0,0,0,0,0,0,0,0,0,0,0
0,0,-18,-2023,-103,596,-33,3,131,0,0,0,0,0,0,0,0,0,0,0
0,0,-25,-2031,-107,597,-33,2,112,0,0,0,0,0,0,0,0,0,0,0
0,0,-15,-2032,-109,595,-32,2,118,0,0,0,0,0,0,0,0,0,0,0
0,0,-19,-2030,-95,598,-33,2,132,0,0,0,0,0,0,0,0,0,0,0
0,0,-21,-2023,-107,596,-33,3,124,0,0,0,0,0,0,0,0,0,0,0
0,0,-19,-2025,-106,596,-34,3,124,0,0,0,0,0,0,0,0,0,0,0
0,0,-13,-2026,-116,598,-33,3,122,0,0,0,0,0,0,0,0,0,0,0
0,0,-21,-2034,-115,596,-31,2,106,0,0,0,0,0,0,0,0,0,0,0
0,0,-15,-2034,-108,595,-35,3,115,0,0,0,0,0,0,0,0,0,0,0
0,0,-16,-2023,-105,595,-33,3,130,0,0,0,0,0,0,0,0,0,0,0
0,0,-7,-2027,-99,596,-32,3,143,0,0,0,0,0,0,0,0,0,0,0
0,0,-21,-2038,-111,596,-32,5,108,0,0,0,0,0,0,0,0,0,0,0
0,0,-21,-2034,-103,596,-32,4,119,0,0,0,0,0,0,0,0,0,0,0
0,0,-22,-2029,-113,598,-32,3,114,0,0,0,0,0,0,0,0,0,0,0
0,0,-23,-2034,-101,595,-32,3,117,0,0,0,0,0,0,0,0,0,0,0
0,0,-23,-2037,-101,595,-32,2,113,0,0,0,0,0,0,0,0,0,0,0
0,0,-27,-2035,-98,598,-34,3,116,0,0,0,0,0,0,0,0,0,0,0
0,0,-24,-2033,-99,597,-33,1,118,0,0,0,0,0,0,0,0,0,0,0
0,0,-20,-2029,-102,595,-32,4,125,0,0,0,0,0,0,0,0,0,0,0
0,0,-21,-2038,-120,596,-33,3,96,0,0,0,0,0,0,0,0,0,0,0
0,0,-18,-2028,-101,596,-31,3,130,0,0,0,0,0,0,0,0,0,0,0
0,0,-16,-2034,-91,594,-32,3,133,0,0,0,0,0,0,0,0,0,0,0
0,0,-17,-2032,-103,596,-33,4,124,0,0,0,0,0,0,0,0,0,0,0
0,0,-16,-2037,-109,597,-34,3,113,0,0,0,0,0,0,0,0,0,0,0
0,0,-16,-2038,-107,596,-34,4,114,0,0,0,0,0,0,0,0,0,0,0
0,0,-19,-2029,-102,595,-32,3,125,0,0,0,0,0,0,0,0,0,0,0
0,0,-26,-2035,-95,597,-34,3,119,0,0,0,0,0,0,0,0,0,0,0
0,0,-18,-2030,-100,597,-34,4,128,0,0,0,0,0,0,0,0,0,0,0
0,0,-17,-2034,-109,596,-33,4,116,0,0,0,0,0,0,0,0,0,0,0
0,0,-24,-2026,-99,596,-32,2,126,0,0,0,0,0,0,0,0,0,0,0
0,0,-19,-2036,-107,596,-32,1,112,0,0,0,0,0,0,0,0,0,0,0
0,0,-25,-2031,-106,596,-34,2,111,0,0,0,0,0,0,0,0,0,0,0
0,0,-24,-2030,-99,596,-32,4,124,0,0,0,0,0,0,0,0,0,0,0
0,0,-24,-2028,-113,595,-33,4,110,0,0,0,0,0,0,0,0,0,0,0
0,0,-15,-2032,-115,595,-33,2,111,0,0,0,0,0,0,0,0,0,0,0
0,0,-24,-2041,-120,595,-34,2,87,0,0,0,0,0,0,0,0,0,0,0
0,0,-26,-2032,-114,596,-33,2,102,0,0,0,0,0,0,0,0,0,0,0
0,0,-27,-2032,-109,597,-33,4,109,0,0,0,0,0,0,0,0,0,0,0
0,0,-21,-2038,-106,597,-31,2,112,0,0,0,0,0,0,0,0,0,0,0
0,0,-16,-2034,-97,598,-33,3,130,0,0,0,0,0,0,0,0,0,0,0
0,0,-22,-2037,-109,596,-33,4,108,0,0,0,0,0,0,0,0,0,0,0
0,0,-15,-2033,-105,597,-32,4,125,0,0,0,0,0,0,0,0,0,0,0
0,0,-12,-2033,-108,597,-33,3,123,0,0,0,0,0,0,0,0,0,0,0
0,0,-13,-2029,-104,596,-32,2,129,0,0,0,0,0,0,0,0,0,0,0
0,0,-14,-2022,-108,597,-32,3,133,0,0,0,0,0,0,0,0,0,0,0
0,0,-24,-2028,-102,595,-34,5,121,0,0,0,0,0,0,0,0,0,0,0
0,0,-18,-2031,-104,596,-34,4,122,0,0,0,0,0,0,0,0,0,0,0
0,0,-12,-2033,-89,596,-31,3,143,0,0,0,0,0,0,0,0,0,0,0
0,0,-12,-2033,-94,595,-33,3,135,0,0,0,0,0,0,0,0,0,0,0
0,0,-19,-2037,-113,596,-32,2,106,0,0,0,0,0,0,0,0,0,0,0
0,0,-15,-2021,-110,595,-33,3,128,0,0,0,0,0,0,0,0,0,0,0
0,0,-27,-2030,-110,595,-33,4,108,0,0,0,0,0,0,0,0,0,0,0
0,0,-20,-2035,-112,594,-34,4,106,0,0,0,0,0,0,0,0,0,0,0
0,0,-22,-2034,-107,596,-32,2,112,0,0,0,0,0,0,0,0,0,0,0
0,0,-19,-2031,-106,596,-33,3,119,0,0,0,0,0,0,0,0,0,0,0
0,0,-19,-2028,-107,598,-32,2,123,0,0,0,0,0,0,0,0,0,0,0
0,0,-21,-2035,-96,596,-34,3,122,0,0,0,0,0,0,0,0,0,0,0
0,0,-18,-2037,-113,596,-34,3,106,0,0,0,0,0,0,0,0,0,0,0
0,0,-11,-2039,-115,597,-32,2,111,0,0,0,0,0,0,0,0,0,0,0
0,0,-21,-2031,-90,597,-35,2,131,0,0,0,0,0,0,0,0,0,0,0
0,0,-13,-2032,-112,597,-34,2,117,0,0,0,0,0,0,0,0,0,0,0
0,0,-17,-2036,-104,596,-32,1,117,0,0,0,0,0,0,0,0,0,0,0
0,0,-13,-2032,-99,595,-32,4,132,0,0,0,0,0,0,0,0,0,0,0
0,0,-21,-2035,-103,597,-32,2,117,0,0,0,0,0,0,0,0,0,0,0
0,0,-12,-2037,-106,596,-33,4,121,0,0,0,0,0,0,0,0,0,0,0
0,0,-17,-2036,-97,597,-33,4,127,0,0,0,0,0,0,0,0,0,0,0
0,0,-17,-2031,-113,596,-33,3,114,0,0,0,0,0,0,0,0,0,0,0
0,0,-21,-2032,-109,595,-34,2,110,0,0,0,0,0,0,0,0,0,0,0
0,0,-22,-2035,-99,597,-34,3,119,0,0,0,0,0,0,0,0,0,0,0
0,0,-22,-2028,-106,597,-34,2,118,0,0,0,0,0,0,0,0,0,0,0
0,0,-28,-2036,-109,596,-32,2,102,0,0,0,0,0,0,0,0,0,0,0
0,0,-18,-2031,-102,595,-33,2,122,0,0,0,0,0,0,0,0,0,0,0
0,0,-23,-2025,-101,596,-34,2,124,0,0,0,0,0,0,0,0,0,0,0
0,0,-21,-2032,-112,595,-33,3,109,0,0,0,0,0,0,0,0,0,0,0
0,0,-19,-2036,-104,597,-32,4,119,0,0,0,0,0,0,0,0,0,0,0
0,0,-19,-2034,-116,596,-32,3,107,0,0,0,0,0,0,0,0,0,0,0
0,0,-20,-2027,-103,597,-33,4,127,0,0,0,0,0,0,0,0,0,0,0
0,0,-26,-2034,-107,597,-34,3,108,0,0,0,0,0,0,0,0,0,0,0
0,0,-20,-2032,-110,596,-33,4,114,0,0,0,0,0,0,0,0,0,0,0
0,0,-12,-2030,-99,597,-32,4,137,0,0,0,0,0,0,0,0,0,0,0
0,0,-28,-2033,-109,595,-32,4,106,0,0,0,0,0,0,0,0,0,0,0
0,0,-22,-2028,-107,596,-32,3,119,0,0,0,0,0,0,0,0,0,0,0
0,0,-18,-2025,-104,597,-33,2,128,0,0,0,0,0,0,0,0,0,0,0
0,0,-21,-2031,-102,597,-33,3,122,0,0,0,0,0,0,0,0,0,0,0
0,0,-20,-2033,-114,598,-33,4,111,0,0,0,0,0,0,0,0,0,0,0
0,0,-21,-2036,-104,597,-33,2,114,0,0,0,0,0,0,0,0,0,0,0
0,0,-17,-2035,-103,596,-33,0,117,0,0,0,0,0,0,0,0,0,0,0
0,0,-21,-2035,-115,596,-32,2,104,0,0,0,0,0,0,0,0,0,0,0
0,0,-20,-2035,-108,597,-33,4,114,0,0,0,0,0,0,0,0,0,0,0
0,0,-23,-2033,-100,596,-34,3,118,0,0,0,0,0,0,0,0,0,0,0
0,0,-21,-2037,-115,596,-32,3,103,0,0,0,0,0,0,0,0,0,0,0
0,0,-26,-2036,-105,595,-33,3,107,0,0,0,0,0,0,0,0,0,0,0
0,0,-24,-2022,-109,596,-33,4,121,0,0,0,0,0,0,0,0,0,0,0
0,0,-16,-2026,-104,596,-34,2,127,0,0,0,0,0,0,0,0,0,0,0
0,0,-16,-2034,-114,595,-32,3,111,0,0,0,0,0,0,0,0,0,0,0
0,0,-17,-2037,-103,595,-33,3,117,0,0,0,0,0,0,0,0,0,0,0
0,0,-24,-2034,-106,597,-32,4,114,0,0,0,0,0,0,0,0,0,0,0
0,0,-15,-2032,-106,597,-32,3,124,0,0,0,0,0,0,0,0,0,0,0
0,0,-18,-2031,-103,597,-33,2,123,0,0,0,0,0,0,0,0,0,0,0
0,0,-20,-2030,-107,597,-31,3,121,0,0,0,0,0,0,0,0,0,0,0
0,0,-24,-2034,-118,597,-32,4,102,0,0,0,0,0,0,0,0,0,0,0
0,0,-23,-2041,-111,597,-34,3,100,0,0,0,0,0,0,0,0,0,0,0
0,0,-19,-2029,-98,597,-33,3,130,0,0,0,0,0,0,0,0,0,0,0
0,0,-13,-2034,-102,598,-33,3,128,0,0,0,0,0,0,0,0,0,0,0
0,0,-24,-2032,-99,595,-33,4,120,0,0,0,0,0,0,0,0,0,0,0
0,0,-22,-2035,-115,596,-34,1,100,0,0,0,0,0,0,0,0,0,0,0
0,0,-12,-2030,-109,597,-33,1,123,0,0,0,0,0,0,0,0,0,0,0
0,0,-20,-2030,-97,598,-33,3,130,0,0,0,0,0,0,0,0,0,0,0
0,0,-19,-2031,-103,595,-33,2,120,0,0,0,0,0,0,0,0,0,0,0
0,0,-20,-2036,-117,597,-33,2,102,0,0,0,0,0,0,0,0,0,0,0
0,0,-19,-2040,-113,597,-33,2,103,0,0,0,0,0,0,0,0,0,0,0
0,0,-15,-2034,-114,596,-32,3,113,0,0,0,0,0,0,0,0,0,0,0
0,0,-20,-2030,-113,596,-33,2,111,0,0,0,0,0,0,0,0,0,0,0
0,0,-30,-2031,-106,595,-32,2,107,0,0,0,0,0,0,0,0,0,0,0
0,0,-25,-2026,-103,596,-33,2,120,0,0,0,0,0,0,0,0,0,0,0
0,0,-20,-2029,-105,597,-32,3,123,0,0,0,0,0,0,0,0,0,0,0
0,0,-20,-2034,-105,597,-32,1,116,0,0,0,0,0,0,0,0,0,0,0
0,0,-20,-2041,-113,596,-33,3,101,0,0,0,0,0,0,0,0,0,0,0
0,0,-25,-2038,-115,596,-35,4,96,0,0,0,0,0,0,0,0,0,0,0
0,0,-22,-2030,-112,596,-32,2,111,0,0,0,0,0,0,0,0,0,0,0
0,0,-25,-2027,-108,596,-33,3,115,0,0,0,0,0,0,0,0,0,0,0
0,0,-24,-2036,-118,596,-33,3,97,0,0,0,0,0,0,0,0,0,0,0
0,0,-26,-2028,-106,597,-32,3,117,0,0,0,0,0,0,0,0,0,0,0
0,0,-24,-2024,-107,596,-34,2,118,0,0,0,0,0,0,0,0,0,0,0
0,0,-21,-2031,-113,597,-33,3,111,0,0,0,0,0,0,0,0,0,0,0
0,0,-14,-2030,-102,596,-31,3,131,0,0,0,0,0,0,0,0,0,0,0
0,0,-18,-2025,-95,595,-33,1,134,0,0,0,0,0,0,0,0,0,0,0
0,0,-21,-2033,-105,596,-34,1,113,0,0,0,0,0,0,0,0,0,0,0
0,0,-15,-2035,-108,597,-35,2,115,0,0,0,0,0,0,0,0,0,0,0
0,0,-16,-2030,-106,596,-32,3,124,0,0,0,0,0,0,0,0,0,0,0
0,0,-17,-2033,-92,598,-31,1,135,0,0,0,0,0,0,0,0,0,0,0
0,0,-18,-2033,-103,595,-32,2,120,0,0,0,0,0,0,0,0,0,0,0
0,0,-17,-2030,-108,596,-33,3,120,0,0,0,0,0,0,0,0,0,0,0
0,0,-21,-2031,-107,597,-33,2,116,0,0,0,0,0,0,0,0,0,0,0
0,0,-16,-2026,-110,596,-31,3,125,0,0,0,0,0,0,0,0,0,0,0
0,0,-23,-2032,-102,595,-32,2,117,0,0,0,0,0,0,0,0,0,0,0
0,0,-25,-2029,-105,595,-33,3,115,0,0,0,0,0,0,0,0,0,0,0
0,0,-18,-2029,-108,597,-33,3,121,0,0,0,0,0,0,0,0,0,0,0
0,0,-24,-2033,-110,597,-33,2,108,0,0,0,0,0,0,0,0,0,0,0
0,0,-27,-2034,-108,596,-33,2,105,0,0,0,0,0,0,0,0,0,0,0
0,0,-17,-2027,-110,595,-35,3,118,0,0,0,0,0,0,0,0,0,0,0
0,0,-22,-2027,-104,594,-33,3,120,0,0,0,0,0,0,0,0,0,0,0
0,0,-19,-2040,-110,596,-33,3,106,0,0,0,0,0,0,0,0,0,0,0
0,0,-27,-2032,-99,596,-34,3,116,0,0,0,0,0,0,0,0,0,0,0
0,0,-28,-2036,-105,597,-32,4,109,0,0,0,0,0,0,0,0,0,0,0
0,0,-17,-2036,-108,594,-33,4,113,0,0,0,0,0,0,0,0,0,0,0
0,0,-17,-2037,-102,597,-33,3,120,0,0,0,0,0,0,0,0,0,0,0
0,0,-21,-2035,-104,598,-33,3,117,0,0,0,0,0,0,0,0,0,0,0
0,0,-26,-2038,-104,597,-32,4,110,0,0,0,0,0,0,0,0,0,0,0
0,0,-22,-2022,-109,597,-32,3,124,0,0,0,0,0,0,0,0,0,0,0
0,0,-18,-2031,-104,596,-34,4,122,0,0,0,0,0,0,0,0,0,0,0
0,0,-15,-2029,-102,595,-33,3,128,0,0,0,0,0,0,0,0,0,0,0
0,0,-16,-2031,-104,596,-33,3,124,0,0,0,0,0,0,0,0,0,0,0
0,0,-24,-2030,-104,597,-33,3,118,0,0,0,0,0,0,0,0,0,0,0
0,0,-23,-2040,-106,597,-32,4,109,0,0,0,0,0,0,0,0,0,0,0
0,0,-18,-2035,-103,597,-33,3,120,0,0,0,0,0,0,0,0,0,0,0
0,0,-28,-2037,-96,595,-33,4,114,0,0,0,0,0,0,0,0,0,0,0
0,0,-16,-2026,-94,597,-32,4,142,0,0,0,0,0,0,0,0,0,0,0
0,0,-19,-2036,-98,596,-33,3,122,0,0,0,0,0,0,0,0,0,0,0
0,0,-22,-2031,-103,597,-32,2,120,0,0,0,0,0,0,0,0,0,0,0
0,0,-19,-2031,-110,596,-35,3,113,0,0,0,0,0,0,0,0,0,0,0
0,0,-17,-2022,-99,597,-33,3,138,0,0,0,0,0,0,0,0,0,0,0
0,0,-15,-2030,-109,597,-36,3,119,0,0,0,0,0,0,0,0,0,0,0
0,0,-21,-2036,-112,597,-33,3,107,0,0,0,0,0,0,0,0,0,0,0
0,0,-13,-2037,-100,597,-33,3,126,0,0,0,0,0,0,0,0,0,0,0
0,0,-21,-2035,-112,596,-33,4,108,0,0,0,0,0,0,0,0,0,0,0
0,0,-20,-2035,-101,597,-32,3,121,0,0,0,0,0,0,0,0,0,0,0
0,0,-20,-2041,-106,598,-35,3,108,0,0,0,0,0,0,0,0,0,0,0
0,0,-16,-2043,-103,597,-34,2,112,0,0,0,0,0,0,0,0,0,0,0
0,0,-22,-2030,-99,597,-33,3,125,0,0,0,0,0,0,0,0,0,0,0
0,0,-21,-2029,-97,595,-33,4,128,0,0,0,0,0,0,0,0,0,0,0
0,0,-23,-2027,-98,595,-32,2,126,0,0,0,0,0,0,0,0,0,0,0
0,0,-11,-2024,-107,596,-34,3,132,0,0,0,0,0,0,0,0,0,0,0
0,0,-20,-2023,-115,598,-33,3,119,0,0,0,0,0,0,0,0,0,0,0
0,0,-19,-2032,-108,598,-33,2,117,0,0,0,0,0,0,0,0,0,0,0
0,0,-20,-2039,-107,595,-33,4,109,0,0,0,0,0,0,0,0,0,0,0
0,0,-25,-2026,-109,597,-33,3,116,0,0,0,0,0,0,0,0,0,0,0
0,0,-19,-2035,-116,597,-32,3,107,0,0,0,0,0,0,0,0,0,0,0
0,0,-23,-2032,-99,596,-33,2,120,0,0,0,0,0,0,0,0,0,0,0
0,0,-14,-2030,-103,594,-34,1,123,0,0,0,0,0,0,0,0,0,0,0
0,0,-20,-2032,-108,595,-32,2,114,0,0,0,0,0,0,0,0,0,0,0
0,0,-21,-2034,-115,596,-34,2,103,0,0,0,0,0,0,0,0,0,0,0
0,0,-18,-2031,-105,597,-34,3,121,0,0,0,0,0,0,0,0,0,0,0
0,0,-21,-2029,-112,597,-33,3,114,0,0,0,0,0,0,0,0,0,0,0
0,0,-17,-2032,-97,594,-33,4,128,0,0,0,0,0,0,0,0,0,0,0
0,0,-23,-2041,-105,596,-34,3,105,0,0,0,0,0,0,0,0,0,0,0
0,0,-14,-2024,-105,595,-34,3,130,0,0,0,0,0,0,0,0,0,0,0
0,0,-16,-2031,-104,596,-33,3,124,0,0,0,0,0,0,0,0,0,0,0
0,0,-22,-2026,-106,596,-33,4,122,0,0,0,0,0,0,0,0,0,0,0
0,0,-13,-2032,-107,596,-33,5,125,0,0,0,0,0,0,0,0,0,0,0
0,0,-15,-2024,-110,595,-32,4,127,0,0,0,0,0,0,0,0,0,0,0
0,0,-16,-2035,-104,595,-31,3,121,0,0,0,0,0,0,0,0,0,0,0
0,0,-11,-2036,-107,598,-33,2,122,0,0,0,0,0,0,0,0,0,0,0
0,0,-15,-2032,-105,596,-33,3,123,0,0,0,0,0,0,0,0,0,0,0
0,0,-15,-2033,-105,596,-35,3,120,0,0,0,0,0,0,0,0,0,0,0
0,0,-18,-2030,-107,598,-32,3,123,0,0,0,0,0,0,0,0,0,0,0
0,0,-19,-2030,-106,596,-33,2,119,0,0,0,0,0,0,0,0,0,0,0
0,0,-20,-2028,-96,595,-33,3,130,0,0,0,0,0,0,0,0,0,0,0
0,0,-17,-2029,-108,596,-33,5,123,0,0,0,0,0,0,0,0,0,0,0
0,0,-16,-2026,-114,596,-35,2,116,0,0,0,0,0,0,0,0,0,0,0
0,0,-17,-2034,-102,596,-34,4,122,0,0,0,0,0,0,0,0,0,0,0
0,0,-23,-2029,-102,595,-34,5,121,0,0,0,0,0,0,0,0,0,0,0
0,0,-17,-2033,-110,596,-34,2,113,0,0,0,0,0,0,0,0,0,0,0
0,0,-13,-2032,-106,597,-34,3,124,0,0,0,0,0,0,0,0,0,0,0
0,0,-19,-2025,-107,595,-33,4,124,0,0,0,0,0,0,0,0,0,0,0
0,0,-10,-2032,-108,596,-35,2,122,0,0,0,0,0,0,0,0,0,0,0
0,0,-25,-2031,-115,597,-32,1,104,0,0,0,0,0,0,0,0,0,0,0
0,0,-20,-2031,-111,596,-33,4,114,0,0,0,0,0,0,0,0,0,0,0
0,0,-21,-2028,-103,596,-33,4,124,0,0,0,0,0,0,0,0,0,0,0
0,0,-20,-2030,-112,595,-34,3,111,0,0,0,0,0,0,0,0,0,0,0
0,0,-19,-2037,-119,595,-33,1,97,0,0,0,0,0,0,0,0,0,0,0
0,0,-24,-2027,-113,596,-34,2,109,0,0,0,0,0,0,0,0,0,0,0
0,0,-18,-2024,-92,594,-33,2,138,0,0,0,0,0,0,0,0,0,0,0
0,0,-14,-2027,-98,593,-33,2,132,0,0,0,0,0,0,0,0,0,0,0
0,0,-19,-2037,-109,597,-33,4,112,0,0,0,0,0,0,0,0,0,0,0
0,0,-18,-2035,-115,596,-32,2,107,0,0,0,0,0,0,0,0,0,0,0
0,0,-15,-2032,-108,595,-33,4,120,0,0,0,0,0,0,0,0,0,0,0
0,0,-25,-2035,-107,596,-33,3,108,0,0,0,0,0,0,0,0,0,0,0
0,0,-19,-2036,-115,596,-33,3,105,0,0,0,0,0,0,0,0,0,0,0
0,0,-13,-2032,-109,596,-33,4,122,0,0,0,0,0,0,0,0,0,0,0
0,0,-15,-2030,-106,595,-33,1,121,0,0,0,0,0,0,0,0,0,0,0
0,0,-19,-2034,-111,596,-34,3,110,0,0,0,0,0,0,0,0,0,0,0
0,0,-12,-2033,-98,597,-34,3,132,0,0,0,0,0,0,0,0,0,0,0
0,0,-21,-2035,-108,597,-34,3,111,0,0,0,0,0,0,0,0,0,0,0
0,0,-22,-2032,-108,596,-33,4,114,0,0,0,0,0,0,0,0,0,0,0
0,0,-23,-2037,-107,596,-32,4,110,0,0,0,0,0,0,0,0,0,0,0
0,0,-25,-2027,-105,596,-33,2,117,0,0,0,0,0,0,0,0,0,0,0
0,0,-26,-2026,-97,596,-35,3,124,0,0,0,0,0,0,0,0,0,0,0
0,0,-14,-2032,-106,595,-32,2,122,0,0,0,0,0,0,0,0,0,0,0
0,0,-15,-2034,-115,595,-33,2,109,0,0,0,0,0,0,0,0,0,0,0
0,0,-20,-2031,-104,597,-32,2,121,0,0,0,0,0,0,0,0,0,0,0
0,0,-18,-2030,-112,595,-34,1,111,0,0,0,0,0,0,0,0,0,0,0
0,0,-20,-2036,-105,596,-32,2,114,0,0,0,0,0,0,0,0,0,0,0
0,0,-19,-2033,-103,596,-33,3,120,0,0,0,0,0,0,0,0,0,0,0
0,0,-19,-2033,-110,596,-32,2,113,0,0,0,0,0,0,0,0,0,0,0
0,0,-20,-2034,-97,596,-33,3,124,0,0,0,0,0,0,0,0,0,0,0
0,0,-9,-2041,-108,595,-32,4,118,0,0,0,0,0,0,0,0,0,0,0
0,0,-16,-2025,-101,596,-32,5,136,0,0,0,0,0,0,0,0,0,0,0
0,0,-17,-2036,-108,596,-33,4,115,0,0,0,0,0,0,0,0,0,0,0
0,0,-22,-2032,-107,595,-32,2,113,0,0,0,0,0,0,0,0,0,0,0
0,0,-18,-2036,-109,595,-33,2,110,0,0,0,0,0,0,0,0,0,0,0
0,0,-16,-2030,-109,595,-34,1,116,0,0,0,0,0,0,0,0,0,0,0
0,0,-22,-2031,-114,595,-33,2,106,0,0,0,0,0,0,0,0,0,0,0
0,0,-15,-2035,-114,594,-34,3,108,0,0,0,0,0,0,0,0,0,0,0
0,0,-24,-2031,-112,597,-34,3,108,0,0,0,0,0,0,0,0,0,0,0
0,0,-22,-2032,-105,597,-33,2,116,0,0,0,0,0,0,0,0,0,0,0
0,0,-24,-2034,-104,595,-31,4,115,0,0,0,0,0,0,0,0,0,0,0
0,0,-16,-2025,-108,596,-33,4,127,0,0,0,0,0,0,0,0,0,0,0
0,0,-16,-2035,-104,596,-33,2,119,0,0,0,0,0,0,0,0,0,0,0
0,0,-21,-2036,-114,596,-32,4,106,0,0,0,0,0,0,0,0,0,0,0
0,0,-15,-2032,-108,597,-32,3,122,0,0,0,0,0,0,0,0,0,0,0
0,0,-21,-2026,-104,597,-33,3,125,0,0,0,0,0,0,0,0,0,0,0
0,0,-19,-2030,-95,597,-34,4,132,0,0,0,0,0,0,0,0,0,0,0
0,0,-13,-2029,-99,594,-34,4,132,0,0,0,0,0,0,0,0,0,0,0
0,0,-14,-2035,-102,596,-33,3,124,0,0,0,0,0,0,0,0,0,0,0
0,0,-19,-2033,-107,598,-33,2,117,0,0,0,0,0,0,0,0,0,0,0
0,0,-20,-2038,-106,596,-32,2,111,0,0,0,0,0,0,0,0,0,0,0
0,0,-19,-2037,-104,596,-35,3,113,0,0,0,0,0,0,0,0,0,0,0
0,0,-17,-2034,-100,596,-34,2,122,0,0,0,0,0,0,0,0,0,0,0
0,0,-12,-2034,-98,596,-32,3,132,0,0,0,0,0,0,0,0,0,0,0
0,0,-19,-2037,-103,596,-32,4,118,0,0,0,0,0,0,0,0,0,0,0
0,0,-21,-2026,-107,596,-34,1,118,0,0,0,0,0,0,0,0,0,0,0
0,0,-13,-2027,-107,595,-34,4,127,0,0,0,0,0,0,0,0,0,0,0
0,0,-26,-2031,-105,596,-33,4,114,0,0,0,0,0,0,0,0,0,0,0
0,0,-27,-2034,-98,596,-33,2,115,0,0,0,0,0,0,0,0,0,0,0
0,0,-18,-2027,-99,596,-32,4,133,0,0,0,0,0,0,0,0,0,0,0
0,0,-16,-2042,-104,594,-32,2,111,0,0,0,0,0,0,0,0,0,0,0
0,0,-15,-2034,-105,596,-32,4,123,0,0,0,0,0,0,0,0,0,0,0
0,0,-13,-2042,-97,596,-34,3,122,0,0,0,0,0,0,0,0,0,0,0
0,0,-19,-2027,-111,595,-33,4,118,0,0,0,0,0,0,0,0,0,0,0
0,0,-12,-2029,-103,596,-32,4,133,0,0,0,0,0,0,0,0,0,0,0
0,0,-15,-2037,-109,596,-35,5,114,0,0,0,0,0,0,0,0,0,0,0
0,0,-17,-2035,-112,596,-32,3,112,0,0,0,0,0,0,0,0,0,0,0
0,0,-16,-2029,-115,595,-33,3,114,0,0,0,0,0,0,0,0,0,0,0
0,0,-18,-2030,-106,597,-33,3,122,0,0,0,0,0,0,0,0,0,0,0
0,0,-25,-2028,-108,596,-33,2,113,0,0,0,0,0,0,0,0,0,0,0
0,0,-19,-2035,-114,597,-32,2,108,0,0,0,0,0,0,0,0,0,0,0
0,0,-18,-2040,-106,595,-34,2,108,0,0,0,0,0,0,0,0,0,0,0
0,0,-18,-2038,-97,598,-33,3,124,0,0,0,0,0,0,0,0,0,0,0
0,0,-15,-2028,-102,595,-32,4,131,0,0,0,0,0,0,0,0,0,0,0
0,0,-17,-2030,-104,597,-33,3,125,0,0,0,0,0,0,0,0,0,0,0
0,0,-21,-2026,-104,597,-33,3,125,0,0,0,0,0,0,0,0,0,0,0
0,0,-20,-2030,-114,595,-33,2,109,0,0,0,0,0,0,0,0,0,0,0
0,0,-14,-2032,-108,596,-33,4,122,0,0,0,0,0,0,0,0,0,0,0
0,0,-11,-2030,-109,598,-32,2,127,0,0,0,0,0,0,0,0,0,0,0
0,0,-16,-2030,-104,595,-31,4,127,0,0,0,0,0,0,0,0,0,0,0
0,0,-18,-2032,-105,596,-32,3,121,0,0,0,0,0,0,0,0,0,0,0
0,0,-17,-2041,-104,596,-33,3,113,0,0,0,0,0,0,0,0,0,0,0
0,0,-22,-2030,-111,596,-33,3,112,0,0,0,0,0,0,0,0,0,0,0
0,0,-19,-2036,-113,596,-33,4,108,0,0,0,0,0,0,0,0,0,0,0
0,0,-21,-2034,-97,597,-34,2,122,0,0,0,0,0,0,0,0,0,0,0
0,0,-13,-2032,-105,596,-34,3,124,0,0,0,0,0,0,0,0,0,0,0
0,0,-18,-2037,-114,596,-34,4,106,0,0,0,0,0,0,0,0,0,0,0
0,0,-24,-2032,-107,596,-32,4,114,0,0,0,0,0,0,0,0,0,0,0
0,0,-10,-2033,-111,595,-31,4,123,0,0,0,0,0,0,0,0,0,0,0
0,0,-8,-2030,-116,596,-35,6,122,0,0,0,0,0,0,0,0,0,0,0
0,0,-21,-2033,-111,597,-32,2,111,0,0,0,0,0,0,0,0,0,0,0
0,0,-21,-2032,-100,596,-34,4,122,0,0,0,0,0,0,0,0,0,0,0
0,0,-13,-2033,-98,596,-33,2,130,0,0,0,0,0,0,0,0,0,0,0
0,0,-19,-2029,-112,596,-32,4,117,0,0,0,0,0,0,0,0,0,0,0
0,0,-22,-2029,-122,595,-32,3,102,0,0,0,0,0,0,0,0,0,0,0
0,0,-15,-2035,-114,595,-32,2,110,0,0,0,0,0,0,0,0,0,0,0
0,0,-21,-2041,-103,596,-31,2,111,0,0,0,0,0,0,0,0,0,0,0
0,0,-23,-2036,-107,595,-32,3,109,0,0,0,0,0,0,0,0,0,0,0
0,0,-24,-2037,-118,596,-33,2,95,0,0,0,0,0,0,0,0,0,0,0
0,0,-21,-2038,-108,597,-34,3,108,0,0,0,0,0,0,0,0,0,0,0
0,0,-19,-2023,-116,596,-32,3,118,0,0,0,0,0,0,0,0,0,0,0
0,0,-17,-2031,-108,597,-32,1,119,0,0,0,0,0,0,0,0,0,0,0
0,0,-13,-2027,-100,595,-32,4,136,0,0,0,0,0,0,0,0,0,0,0
0,0,-23,-2028,-110,597,-33,6,118,0,0,0,0,0,0,0,0,0,0,0
0,0,-26,-2026,-94,595,-34,3,127,0,0,0,0,0,0,0,0,0,0,0
0,0,-17,-2036,-92,597,-33,3,131,0,0,0,0,0,0,0,0,0,0,0
0,0,-19,-2035,-90,595,-32,3,131,0,0,0,0,0,0,0,0,0,0,0
0,0,-17,-2027,-102,596,-34,3,128,0,0,0,0,0,0,0,0,0,0,0
0,0,-20,-2029,-102,596,-36,2,120,0,0,0,0,0,0,0,0,0,0,0
0,0,-22,-2039,-110,595,-34,2,101,0,0,0,0,0,0,0,0,0,0,0
0,0,-25,-2033,-110,598,-32,3,110,0,0,0,0,0,0,0,0,0,0,0
0,0,-25,-2030,-113,596,-34,3,106,0,0,0,0,0,0,0,0,0,0,0
0,0,-17,-2027,-114,596,-33,2,116,0,0,0,0,0,0,0,0,0,0,0
0,0,-15,-2025,-109,596,-33,4,127,0,0,0,0,0,0,0,0,0,0,0
0,0,-22,-2033,-104,594,-35,2,111,0,0,0,0,0,0,0,0,0,0,0
0,0,-16,-2032,-96,597,-33,3,132,0,0,0,0,0,0,0,0,0,0,0
0,0,-12,-2031,-106,597,-34,4,127,0,0,0,0,0,0,0,0,0,0,0
0,0,-24,-2027,-109,599,-33,2,117,0,0,0,0,0,0,0,0,0,0,0
0,0,-25,-2035,-114,597,-34,2,100,0,0,0,0,0,0,0,0,0,0,0
0,0,-23,-2032,-112,598,-32,2,110,0,0,0,0,0,0,0,0,0,0,0
0,0,-22,-2036,-100,596,-33,5,119,0,0,0,0,0,0,0,0,0,0,0
0,0,-17,-2033,-105,597,-32,1,120,0,0,0,0,0,0,0,0,0,0,0
0,0,-20,-2040,-105,596,-32,2,110,0,0,0,0,0,0,0,0,0,0,0
0,0,-15,-2032,-99,596,-34,2,127,0,0,0,0,0,0,0,0,0,0,0
0,0,-17,-2029,-99,595,-33,4,130,0,0,0,0,0,0,0,0,0,0,0
0,0,-22,-2032,-103,595,-32,5,120,0,0,0,0,0,0,0,0,0,0,0
0,0,-23,-2031,-101,596,-32,3,121,0,0,0,0,0,0,0,0,0,0,0
0,0,-23,-2038,-107,595,-35,2,103,0,0,0,0,0,0,0,0,0,0,0
0,0,-19,-2029,-108,595,-34,3,117,0,0,0,0,0,0,0,0,0,0,0
0,0,-20,-2028,-107,597,-33,3,121,0,0,0,0,0,0,0,0,0,0,0
0,0,-21,-2028,-113,597,-34,2,112,0,0,0,0,0,0,0,0,0,0,0
0,0,-22,-2026,-110,596,-33,3,117,0,0,0,0,0,0,0,0,0,0,0
0,0,-20,-2036,-96,595,-33,3,122,0,0,0,0,0,0,0,0,0,0,0
0,0,-15,-2033,-104,596,-32,4,125,0,0,0,0,0,0,0,0,0,0,0
0,0,-24,-2038,-115,595,-35,4,96,0,0,0,0,0,0,0,0,0,0,0
0,0,-19,-2034,-111,595,-34,3,109,0,0,0,0,0,0,0,0,0,0,0
0,0,-15,-2028,-107,596,-32,3,126,0,0,0,0,0,0,0,0,0,0,0
0,0,-15,-2033,-107,595,-31,4,122,0,0,0,0,0,0,0,0,0,0,0
0,0,-16,-2035,-101,597,-33,3,124,0,0,0,0,0,0,0,0,0,0,0
0,0,-19,-2030,-103,597,-34,3,123,0,0,0,0,0,0,0,0,0,0,0
0,0,-22,-2032,-96,594,-33,2,122,0,0,0,0,0,0,0,0,0,0,0
0,0,-22,-2036,-91,596,-34,3,125,0,0,0,0,0,0,0,0,0,0,0
0,0,-18,-2034,-101,597,-35,2,120,0,0,0,0,0,0,0,0,0,0,0
0,0,-21,-2032,-106,597,-32,4,119,0,0,0,0,0,0,0,0,0,0,0
0,0,-15,-2036,-104,596,-33,3,120,0,0,0,0,0,0,0,0,0,0,0
0,0,-15,-2031,-109,595,-34,3,118,0,0,0,0,0,0,0,0,0,0,0
0,0,-23,-2036,-109,597,-35,4,107,0,0,0,0,0,0,0,0,0,0,0
0,0,-20,-2033,-102,597,-35,3,119,0,0,0,0,0,0,0,0,0,0,0
0,0,-16,-2035,-102,596,-33,3,122,0,0,0,0,0,0,0,0,0,0,0
0,0,-17,-2028,-112,596,-33,2,117,0,0,0,0,0,0,0,0,0,0,0
0,0,-22,-2028,-111,597,-34,4,115,0,0,0,0,0,0,0,0,0,0,0
0,0,-16,-2034,-116,596,-35,2,106,0,0,0,0,0,0,0,0,0,0,0
0,0,-16,-2033,-117,597,-31,3,112,0,0,0,0,0,0,0,0,0,0,0
0,0,-16,-2032,-113,596,-33,4,115,0,0,0,0,0,0,0,0,0,0,0
0,0,-20,-2033,-98,598,-33,3,126,0,0,0,0,0,0,0,0,0,0,0
0,0,-24,-2033,-100,597,-32,2,119,0,0,0,0,0,0,0,0,0,0,0
0,0,-20,-2038,-102,598,-34,2,115,0,0,0,0,0,0,0,0,0,0,0
0,0,-16,-2027,-102,597,-32,3,132,0,0,0,0,0,0,0,0,0,0,0
0,0,-16,-2031,-103,596,-35,3,123,0,0,0,0,0,0,0,0,0,0,0
0,0,-16,-2029,-104,596,-33,2,125,0,0,0,0,0,0,0,0,0,0,0
0,0,-15,-2032,-98,595,-32,3,130,0,0,0,0,0,0,0,0,0,0,0
0,0,-23,-2033,-106,596,-34,2,111,0,0,0,0,0,0,0,0,0,0,0
0,0,-15,-2035,-102,596,-34,3,122,0,0,0,0,0,0,0,0,0,0,0
0,0,-17,-2034,-111,595,-32,4,114,0,0,0,0,0,0,0,0,0,0,0
0,0,-14,-2034,-114,595,-33,2,111,0,0,0,0,0,0,0,0,0,0,0
0,0,-17,-2028,-107,594,-33,4,122,0,0,0,0,0,0,0,0,0,0,0
0,0,-21,-2034,-110,597,-34,2,109,0,0,0,0,0,0,0,0,0,0,0
0,0,-21,-2028,-111,598,-33,4,118,0,0,0,0,0,0,0,0,0,0,0
0,0,-15,-2037,-111,595,-32,3,112,0,0,0,0,0,0,0,0,0,0,0
0,0,-19,-2035,-116,596,-33,3,105,0,0,0,0,0,0,0,0,0,0,0
0,0,-25,-2034,-111,598,-32,2,107,0,0,0,0,0,0,0,0,0,0,0
0,0,-19,-2030,-114,596,-32,3,113,0,0,0,0,0,0,0,0,0,0,0
0,0,-22,-2033,-107,596,-33,2,112,0,0,0,0,0,0,0,0,0,0,0
0,0,-26,-2038,-107,596,-34,4,104,0,0,0,0,0,0,0,0,0,0,0
0,0,-27,-2024,-106,596,-34,2,116,0,0,0,0,0,0,0,0,0,0,0
0,0,-19,-2032,-97,596,-32,3,128,0,0,0,0,0,0,0,0,0,0,0
0,0,-19,-2036,-106,597,-33,1,113,0,0,0,0,0,0,0,0,0,0,0
0,0,-18,-2032,-114,596,-32,4,113,0,0,0,0,0,0,0,0,0,0,0
0,0,-16,-2032,-100,596,-32,3,128,0,0,0,0,0,0,0,0,0,0,0
0,0,-17,-2031,-105,596,-33,5,124,0,0,0,0,0,0,0,0,0,0,0
0,0,-21,-2037,-106,595,-32,4,112,0,0,0,0,0,0,0,0,0,0,0
0,0,-19,-2038,-114,596,-34,4,104,0,0,0,0,0,0,0,0,0,0,0
0,0,-15,-2035,-117,596,-33,2,107,0,0,0,0,0,0,0,0,0,0,0
0,0,-11,-2037,-118,595,-33,2,107,0,0,0,0,0,0,0,0,0,0,0
0,0,-20,-2038,-122,595,-33,4,95,0,0,0,0,0,0,0,0,0,0,0
0,0,-20,-2024,-92,597,-35,2,137,0,0,0,0,0,0,0,0,0,0,0
0,0,-14,-2031,-115,596,-32,2,115,0,0,0,0,0,0,0,0,0,0,0
0,0,-23,-2036,-99,597,-34,3,117,0,0,0,0,0,0,0,0,0,0,0
0,0,-27,-2026,-102,596,-33,2,119,0,0,0,0,0,0,0,0,0,0,0
0,0,-21,-2034,-100,595,-32,3,120,0,0,0,0,0,0,0,0,0,0,0
0,0,-21,-2037,-101,594,-33,1,112,0,0,0,0,0,0,0,0,0,0,0
0,0,-18,-2041,-90,597,-34,1,124,0,0,0,0,0,0,0,0,0,0,0
0,0,-19,-2031,-105,597,-33,4,122,0,0,0,0,0,0,0,0,0,0,0
0,0,-25,-2026,-109,596,-35,3,113,0,0,0,0,0,0,0,0,0,0,0
0,0,-10,-2031,-96,596,-33,2,137,0,0,0,0,0,0,0,0,0,0,0
0,0,-15,-2033,-95,596,-34,3,131,0,0,0,0,0,0,0,0,0,0,0
0,0,-12,-2031,-96,597,-35,2,134,0,0,0,0,0,0,0,0,0,0,0
0,0,-10,-2034,-107,595,-33,4,124,0,0,0,0,0,0,0,0,0,0,0
0,0,-16,-2027,-102,596,-32,4,132,0,0,0,0,0,0,0,0,0,0,0
0,0,-18,-2038,-111,596,-33,3,108,0,0,0,0,0,0,0,0,0,0,0
0,0,-19,-2026,-108,596,-32,5,125,0,0,0,0,0,0,0,0,0,0,0
0,0,-22,-2033,-97,597,-33,3,124,0,0,0,0,0,0,0,0,0,0,0
0,0,-22,-2027,-109,596,-32,2,117,0,0,0,0,0,0,0,0,0,0,0
0,0,-17,-2035,-109,596,-35,3,112,0,0,0,0,0,0,0,0,0,0,0
0,0,-16,-2034,-102,595,-34,3,121,0,0,0,0,0,0,0,0,0,0,0
0,0,-20,-2029,-106,595,-32,2,119,0,0,0,0,0,0,0,0,0,0,0
0,0,-17,-2028,-100,596,-32,3,131,0,0,0,0,0,0,0,0,0,0,0
0,0,-22,-2026,-115,597,-32,3,114,0,0,0,0,0,0,0,0,0,0,0
0,0,-21,-2028,-110,596,-33,2,115,0,0,0,0,0,0,0,0,0,0,0
0,0,-21,-2032,-107,595,-33,3,114,0,0,0,0,0,0,0,0,0,0,0
0,0,-18,-2029,-107,594,-33,2,118,0,0,0,0,0,0,0,0,0,0,0
0,0,-16,-2028,-117,595,-34,3,112,0,0,0,0,0,0,0,0,0,0,0
0,0,-21,-2038,-110,595,-33,3,105,0,0,0,0,0,0,0,0,0,0,0
0,0,-20,-2028,-107,595,-34,2,117,0,0,0,0,0,0,0,0,0,0,0
0,0,-16,-2032,-102,599,-33,2,127,0,0,0,0,0,0,0,0,0,0,0
0,0,-22,-2027,-103,596,-33,3,123,0,0,0,0,0,0,0,0,0,0,0
0,0,-21,-2034,-111,596,-32,4,111,0,0,0,0,0,0,0,0,0,0,0
0,0,-23,-2038,-112,598,-32,3,105,0,0,0,0,0,0,0,0,0,0,0
0,0,-24,-2038,-104,597,-33,1,108,0,0,0,0,0,0,0,0,0,0,0
0,0,-21,-2029,-106,596,-30,3,122,0,0,0,0,0,0,0,0,0,0,0
0,0,-12,-2031,-104,596,-33,2,127,0,0,0,0,0,0,0,0,0,0,0
0,0,-24,-2032,-110,597,-33,1,108,0,0,0,0,0,0,0,0,0,0,0
0,0,-21,-2026,-108,597,-32,3,122,0,0,0,0,0,0,0,0,0,0,0
0,0,-17,-2033,-111,596,-31,5,118,0,0,0,0,0,0,0,0,0,0,0
0,0,-18,-2034,-94,594,-31,2,128,0,0,0,0,0,0,0,0,0,0,0
0,0,-18,-2029,-103,596,-33,5,127,0,0,0,0,0,0,0,0,0,0,0
0,0,-23,-2033,-102,596,-33,3,117,0,0,0,0,0,0,0,0,0,0,0
0,0,-29,-2030,-109,596,-33,4,108,0,0,0,0,0,0,0,0,0,0,0
0,0,-22,-2030,-108,597,-31,4,119,0,0,0,0,0,0,0,0,0,0,0
0,0,-16,-2033,-112,595,-33,4,114,0,0,0,0,0,0,0,0,0,0,0
0,0,-26,-2030,-94,596,-32,1,124,0,0,0,0,0,0,0,0,0,0,0
0,0,-16,-2029,-115,597,-32,3,117,0,0,0,0,0,0,0,0,0,0,0
0,0,-20,-2031,-102,596,-32,2,122,0,0,0,0,0,0,0,0,0,0,0
0,0,-21,-2037,-106,595,-32,2,110,0,0,0,0,0,0,0,0,0,0,0
0,0,-18,-2036,-97,596,-33,3,124,0,0,0,0,0,0,0,0,0,0,0
0,0,-25,-2035,-99,596,-32,3,117,0,0,0,0,0,0,0,0,0,0,0
0,0,-15,-2022,-104,595,-34,3,132,0,0,0,0,0,0,0,0,0,0,0
0,0,-16,-2031,-112,595,-32,1,114,0,0,0,0,0,0,0,0,0,0,0
0,0,-18,-2034,-105,596,-33,2,117,0,0,0,0,0,0,0,0,0,0,0
0,0,-28,-2035,-103,596,-33,2,108,0,0,0,0,0,0,0,0,0,0,0
0,0,-19,-2040,-96,597,-33,2,120,0,0,0,0,0,0,0,0,0,0,0
0,0,-20,-2039,-113,597,-33,2,103,0,0,0,0,0,0,0,0,0,0,0
0,0,-15,-2033,-101,597,-34,3,126,0,0,0,0,0,0,0,0,0,0,0
0,0,-14,-2029,-109,595,-33,3,122,0,0,0,0,0,0,0,0,0,0,0
0,0,-17,-2031,-99,595,-30,3,130,0,0,0,0,0,0,0,0,0,0,0
0,0,-19,-2041,-105,596,-31,5,114,0,0,0,0,0,0,0,0,0,0,0
0,0,-15,-2037,-115,596,-34,4,108,0,0,0,0,0,0,0,0,0,0,0
0,0,-23,-2033,-116,596,-35,2,100,0,0,0,0,0,0,0,0,0,0,0
0,0,-20,-2034,-118,597,-34,3,103,0,0,0,0,0,0,0,0,0,0,0
0,0,-21,-2023,-116,596,-32,3,116,0,0,0,0,0,0,0,0,0,0,0
0,0,-20,-2027,-113,595,-33,2,113,0,0,0,0,0,0,0,0,0,0,0
0,0,-21,-2032,-112,596,-33,2,109,0,0,0,0,0,0,0,0,0,0,0
0,0,-16,-2033,-109,596,-32,4,119,0,0,0,0,0,0,0,0,0,0,0
0,0,-19,-2029,-104,595,-32,5,125,0,0,0,0,0,0,0,0,0,0,0
0,0,-24,-2032,-104,596,-32,2,115,0,0,0,0,0,0,0,0,0,0,0
0,0,-21,-2027,-109,596,-33,2,117,0,0,0,0,0,0,0,0,0,0,0
0,0,-22,-2035,-109,596,-32,3,110,0,0,0,0,0,0,0,0,0,0,0
0,0,-18,-2040,-109,596,-31,3,110,0,0,0,0,0,0,0,0,0,0,0
0,0,-18,-2037,-103,595,-32,2,116,0,0,0,0,0,0,0,0,0,0,0
0,0,-17,-2033,-106,599,-32,3,123,0,0,0,0,0,0,0,0,0,0,0
0,0,-22,-2032,-99,596,-32,4,124,0,0,0,0,0,0,0,0,0,0,0
0,0,-22,-2035,-111,597,-32,2,108,0,0,0,0,0,0,0,0,0,0,0
0,0,-16,-2028,-105,596,-33,2,125,0,0,0,0,0,0,0,0,0,0,0
0,0,-19,-2032,-100,595,-33,2,122,0,0,0,0,0,0,0,0,0,0,0
0,0,-18,-2034,-106,597,-34,2,116,0,0,0,0,0,0,0,0,0,0,0
0,0,-19,-2032,-113,598,-32,2,113,0,0,0,0,0,0,0,0,0,0,0
0,0,-19,-2039,-115,597,-33,2,102,0,0,0,0,0,0,0,0,0,0,0
0,0,-18,-2029,-108,596,-33,4,121,0,0,0,0,0,0,0,0,0,0,0
0,0,-17,-2026,-103,597,-34,3,129,0,0,0,0,0,0,0,0,0,0,0
0,0,-20,-2025,-112,597,-35,1,115,0,0,0,0,0,0,0,0,0,0,0
0,0,-25,-2025,-108,597,-33,4,119,0,0,0,0,0,0,0,0,0,0,0
0,0,-24,-2031,-112,597,-32,4,111,0,0,0,0,0,0,0,0,0,0,0
0,0,-20,-2033,-98,597,-32,2,125,0,0,0,0,0,0,0,0,0,0,0
0,0,-21,-2032,-115,595,-34,2,104,0,0,0,0,0,0,0,0,0,0,0
0,0,-16,-2031,-100,595,-33,4,128,0,0,0,0,0,0,0,0,0,0,0
0,0,-11,-2037,-104,595,-33,2,121,0,0,0,0,0,0,0,0,0,0,0
0,0,-23,-2035,-109,597,-35,2,106,0,0,0,0,0,0,0,0,0,0,0
0,0,-21,-2030,-99,596,-34,2,123,0,0,0,0,0,0,0,0,0,0,0
0,0,-17,-2032,-109,597,-32,3,119,0,0,0,0,0,0,0,0,0,0,0
0,0,-23,-2032,-112,596,-32,2,108,0,0,0,0,0,0,0,0,0,0,0
0,0,-15,-2039,-114,598,-31,3,111,0,0,0,0,0,0,0,0,0,0,0
0,0,-18,-2036,-108,596,-33,3,113,0,0,0,0,0,0,0,0,0,0,0
0,0,-13,-2031,-115,597,-34,2,115,0,0,0,0,0,0,0,0,0,0,0
0,0,-21,-2033,-111,596,-33,3,110,0,0,0,0,0,0,0,0,0,0,0
0,0,-19,-2027,-100,595,-33,2,127,0,0,0,0,0,0,0,0,0,0,0
0,0,-8,-2028,-108,596,-32,4,133,0,0,0,0,0,0,0,0,0,0,0
0,0,-15,-2040,-105,597,-32,4,118,0,0,0,0,0,0,0,0,0,0,0
0,0,-21,-2032,-107,594,-32,5,116,0,0,0,0,0,0,0,0,0,0,0
0,0,-17,-2031,-99,596,-32,3,129,0,0,0,0,0,0,0,0,0,0,0
0,0,-17,-2035,-116,597,-32,4,110,0,0,0,0,0,0,0,0,0,0,0
0,0,-14,-2028,-110,595,-33,5,124,0,0,0,0,0,0,0,0,0,0,0
0,0,-19,-2030,-120,596,-32,4,108,0,0,0,0,0,0,0,0,0,0,0
