1,2,3,4,5,6,7,8,9,10,11,12,13,14,15,16,17,18,19,20
UserData_20,Frame ID£º0x01,FC_ACC_X,FC_ACC_Y,FC_ACC_Z,FC_GYR_X,FC_GYR_Y,FC_GYR_Z,FC_STA_Shock,Frame ID£º0x02,FC_MAG_X,FC_MAG_Y,FC_MAG_Z,FC_ALT_BAR,FC_SenserTMP,FC_STA_BAR,FC_STA_MAG,Frame ID£º0x03,FC_ATT_ROL,FC_ATT_PIT
0,0,103,2047,-107,602,-32,3,245,0,0,0,0,0,0,0,0,0,0,0
0,0,101,2045,-112,603,-33,1,234,0,0,0,0,0,0,0,0,0,0,0
0,0,106,2050,-120,600,-32,0,234,0,0,0,0,0,0,0,0,0,0,0
0,0,107,2045,-112,600,-34,3,238,0,0,0,0,0,0,0,0,0,0,0
0,0,103,2042,-108,602,-32,0,236,0,0,0,0,0,0,0,0,0,0,0
0,0,95,2053,-102,600,-32,1,245,0,0,0,0,0,0,0,0,0,0,0
0,0,94,2042,-104,598,-32,3,230,0,0,0,0,0,0,0,0,0,0,0
0,0,100,2047,-105,601,-33,3,242,0,0,0,0,0,0,0,0,0,0,0
0,0,97,2048,-111,599,-31,2,234,0,0,0,0,0,0,0,0,0,0,0
0,0,99,2048,-99,600,-31,2,249,0,0,0,0,0,0,0,0,0,0,0
0,0,99,2051,-109,600,-31,0,240,0,0,0,0,0,0,0,0,0,0,0
0,0,106,2053,-109,601,-34,1,248,0,0,0,0,0,0,0,0,0,0,0
0,0,101,2048,-108,598,-33,2,238,0,0,0,0,0,0,0,0,0,0,0
0,0,92,2047,-112,600,-31,3,228,0,0,0,0,0,0,0,0,0,0,0
0,0,100,2043,-108,600,-33,1,232,0,0,0,0,0,0,0,0,0,0,0
0,0,96,2046,-105,600,-31,2,237,0,0,0,0,0,0,0,0,0,0,0
0,0,99,2045,-121,599,-32,-1,217,0,0,0,0,0,0,0,0,0,0,0
0,0,99,2046,-111,601,-31,2,235,0,0,0,0,0,0,0,0,0,0,0
0,0,101,2053,-111,602,-32,3,246,0,0,0,0,0,0,0,0,0,0,0
0,0,102,2053,-120,600,-32,2,235,0,0,0,0,0,0,0,0,0,0,0
0,0,102,2051,-120,599,-32,2,232,0,0,0,0,0,0,0,0,0,0,0
0,0,103,2055,-111,601,-33,2,247,0,0,0,0,0,0,0,0,0,0,0
0,0,101,2042,-110,600,-33,1,230,0,0,0,0,0,0,0,0,0,0,0
0,0,107,2050,-112,600,-33,2,244,0,0,0,0,0,0,0,0,0,0,0
0,0,108,2045,-119,600,-32,1,232,0,0,0,0,0,0,0,0,0,0,0
0,0,104,2047,-116,600,-30,1,235,0,0,0,0,0,0,0,0,0,0,0
0,0,99,2042,-115,600,-31,3,227,0,0,0,0,0,0,0,0,0,0,0
0,0,100,2041,-123,598,-32,3,216,0,0,0,0,0,0,0,0,0,0,0
0,0,102,2052,-113,601,-33,2,241,0,0,0,0,0,0,0,0,0,0,0
0,0,98,2049,-120,600,-32,1,226,0,0,0,0,0,0,0,0,0,0,0
0,0,97,2051,-122,600,-32,1,225,0,0,0,0,0,0,0,0,0,0,0
0,0,105,2042,-111,600,-31,1,235,0,0,0,0,0,0,0,0,0,0,0
0,0,99,2047,-115,600,-31,2,231,0,0,0,0,0,0,0,0,0,0,0
0,0,100,2050,-117,599,-32,0,230,0,0,0,0,0,0,0,0,0,0,0
0,0,106,2056,-110,599,-32,0,249,0,0,0,0,0,0,0,0,0,0,0
0,0,105,2043,-121,600,-32,1,225,0,0,0,0,0,0,0,0,0,0,0
0,0,102,2051,-111,602,-32,1,243,0,0,0,0,0,0,0,0,0,0,0
0,0,100,2050,-102,602,-31,1,250,0,0,0,0,0,0,0,0,0,0,0
0,0,100,2049,-109,602,-33,2,241,0,0,0,0,0,0,0,0,0,0,0
0,0,103,2046,-116,600,-31,1,232,0,0,0,0,0,0,0,0,0,0,0
0,0,100,2051,-116,599,-31,2,235,0,0,0,0,0,0,0,0,0,0,0
0,0,103,2053,-108,600,-32,2,248,0,0,0,0,0,0,0,0,0,0,0
0,0,100,2048,-102,600,-33,2,245,0,0,0,0,0,0,0,0,0,0,0
0,0,99,2046,-113,600,-32,1,230,0,0,0,0,0,0,0,0,0,0,0
0,0,102,2046,-114,598,-34,2,229,0,0,0,0,0,0,0,0,0,0,0
0,0,104,2047,-113,600,-32,1,236,0,0,0,0,0,0,0,0,0,0,0
0,0,101,2053,-110,600,-32,2,244,0,0,0,0,0,0,0,0,0,0,0
0,0,105,2043,-110,599,-30,1,237,0,0,0,0,0,0,0,0,0,0,0
0,0,98,2043,-111,600,-31,1,229,0,0,0,0,0,0,0,0,0,0,0
0,0,101,2048,-107,602,-32,1,243,0,0,0,0,0,0,0,0,0,0,0
0,0,105,2049,-112,601,-33,2,242,0,0,0,0,0,0,0,0,0,0,0
0,0,102,2055,-113,600,-31,0,243,0,0,0,0,0,0,0,0,0,0,0
0,0,102,2044,-109,601,-31,3,239,0,0,0,0,0,0,0,0,0,0,0
0,0,103,2044,-104,600,-32,2,242,0,0,0,0,0,0,0,0,0,0,0
0,0,108,2048,-106,599,-32,2,249,0,0,0,0,0,0,0,0,0,0,0
0,0,100,2046,-129,601,-30,2,219,0,0,0,0,0,0,0,0,0,0,0
0,0,105,2057,-117,599,-32,2,244,0,0,0,0,0,0,0,0,0,0,0
0,0,104,2053,-117,600,-31,1,240,0,0,0,0,0,0,0,0,0,0,0
0,0,99,2048,-115,600,-30,1,233,0,0,0,0,0,0,0,0,0,0,0
0,0,102,2052,-115,598,-32,-1,233,0,0,0,0,0,0,0,0,0,0,0
0,0,105,2047,-108,600,-33,0,240,0,0,0,0,0,0,0,0,0,0,0
0,0,98,2049,-118,600,-32,3,230,0,0,0,0,0,0,0,0,0,0,0
0,0,97,2056,-114,601,-32,2,240,0,0,0,0,0,0,0,0,0,0,0
0,0,102,2050,-114,600,-32,0,236,0,0,0,0,0,0,0,0,0,0,0
0,0,108,2040,-111,600,-32,2,236,0,0,0,0,0,0,0,0,0,0,0
0,0,101,2050,-124,601,-33,2,227,0,0,0,0,0,0,0,0,0,0,0
0,0,113,2053,-125,599,-31,1,240,0,0,0,0,0,0,0,0,0,0,0
0,0,105,2046,-114,602,-31,1,238,0,0,0,0,0,0,0,0,0,0,0
0,0,95,2043,-120,600,-31,2,218,0,0,0,0,0,0,0,0,0,0,0
0,0,97,2042,-118,601,-31,0,220,0,0,0,0,0,0,0,0,0,0,0
0,0,93,2047,-108,599,-33,1,228,0,0,0,0,0,0,0,0,0,0,0
0,0,105,2046,-111,600,-32,2,239,0,0,0,0,0,0,0,0,0,0,0
0,0,108,2045,-122,599,-32,1,228,0,0,0,0,0,0,0,0,0,0,0
0,0,105,2048,-112,599,-33,1,238,0,0,0,0,0,0,0,0,0,0,0
0,0,97,2045,-114,599,-31,0,225,0,0,0,0,0,0,0,0,0,0,0
0,0,96,2045,-107,600,-34,3,232,0,0,0,0,0,0,0,0,0,0,0
0,0,103,2045,-120,599,-30,1,227,0,0,0,0,0,0,0,0,0,0,0
0,0,99,2054,-116,599,-30,2,238,0,0,0,0,0,0,0,0,0,0,0
0,0,101,2053,-111,600,-32,2,243,0,0,0,0,0,0,0,0,0,0,0
0,0,106,2048,-110,601,-31,1,245,0,0,0,0,0,0,0,0,0,0,0
0,0,102,2045,-109,601,-31,1,238,0,0,0,0,0,0,0,0,0,0,0
0,0,94,2048,-120,600,-31,1,222,0,0,0,0,0,0,0,0,0,0,0
0,0,102,2045,-117,600,-31,0,228,0,0,0,0,0,0,0,0,0,0,0
0,0,99,2052,-110,601,-32,1,241,0,0,0,0,0,0,0,0,0,0,0
0,0,102,2050,-114,600,-32,3,239,0,0,0,0,0,0,0,0,0,0,0
0,0,102,2052,-109,599,-31,2,245,0,0,0,0,0,0,0,0,0,0,0
0,0,103,2055,-117,601,-29,1,244,0,0,0,0,0,0,0,0,0,0,0
0,0,99,2044,-117,599,-32,2,224,0,0,0,0,0,0,0,0,0,0,0
0,0,96,2050,-105,599,-32,1,239,0,0,0,0,0,0,0,0,0,0,0
0,0,104,2052,-121,600,-31,2,236,0,0,0,0,0,0,0,0,0,0,0
0,0,101,2046,-111,600,-32,1,234,0,0,0,0,0,0,0,0,0,0,0
0,0,93,2045,-102,600,-32,0,233,0,0,0,0,0,0,0,0,0,0,0
0,0,109,2055,-101,601,-32,2,8,0,0,0,0,0,0,0,0,0,0,0
0,0,97,2055,-105,599,-33,1,244,0,0,0,0,0,0,0,0,0,0,0
0,0,99,2044,-114,601,-32,2,229,0,0,0,0,0,0,0,0,0,0,0
0,0,99,2046,-124,601,-33,0,218,0,0,0,0,0,0,0,0,0,0,0
0,0,102,2050,-113,600,-31,1,239,0,0,0,0,0,0,0,0,0,0,0
0,0,102,2053,-109,600,-32,0,244,0,0,0,0,0,0,0,0,0,0,0
0,0,97,2057,-98,601,-32,2,1,0,0,0,0,0,0,0,0,0,0,0
0,0,101,2053,-116,601,-33,3,239,0,0,0,0,0,0,0,0,0,0,0
0,0,105,2057,-109,600,-31,2,254,0,0,0,0,0,0,0,0,0,0,0
0,0,101,2051,-110,600,-31,1,242,0,0,0,0,0,0,0,0,0,0,0
0,0,103,2050,-103,599,-30,1,250,0,0,0,0,0,0,0,0,0,0,0
0,0,104,2050,-111,601,-30,2,246,0,0,0,0,0,0,0,0,0,0,0
0,0,101,2056,-106,600,-33,2,250,0,0,0,0,0,0,0,0,0,0,0
0,0,101,2050,-111,599,-33,3,239,0,0,0,0,0,0,0,0,0,0,0
0,0,96,2052,-107,600,-32,2,241,0,0,0,0,0,0,0,0,0,0,0
0,0,106,2054,-115,600,-31,2,246,0,0,0,0,0,0,0,0,0,0,0
0,0,100,2050,-105,601,-32,1,245,0,0,0,0,0,0,0,0,0,0,0
0,0,100,2050,-124,600,-31,1,226,0,0,0,0,0,0,0,0,0,0,0
0,0,100,2042,-114,599,-31,1,226,0,0,0,0,0,0,0,0,0,0,0
0,0,106,2047,-117,599,-31,1,234,0,0,0,0,0,0,0,0,0,0,0
0,0,103,2048,-111,599,-33,1,237,0,0,0,0,0,0,0,0,0,0,0
0,0,103,2050,-106,600,-33,2,246,0,0,0,0,0,0,0,0,0,0,0
0,0,94,2050,-124,599,-30,1,220,0,0,0,0,0,0,0,0,0,0,0
0,0,93,2045,-118,599,-33,2,217,0,0,0,0,0,0,0,0,0,0,0
0,0,101,2049,-114,599,-32,1,234,0,0,0,0,0,0,0,0,0,0,0
0,0,99,2053,-108,600,-33,1,242,0,0,0,0,0,0,0,0,0,0,0
0,0,103,2044,-121,600,-32,1,224,0,0,0,0,0,0,0,0,0,0,0
0,0,101,2050,-111,601,-31,1,241,0,0,0,0,0,0,0,0,0,0,0
0,0,97,2057,-119,599,-31,1,234,0,0,0,0,0,0,0,0,0,0,0
0,0,102,2053,-116,601,-33,0,237,0,0,0,0,0,0,0,0,0,0,0
0,0,100,2050,-107,599,-32,2,242,0,0,0,0,0,0,0,0,0,0,0
0,0,98,2053,-108,602,-32,2,245,0,0,0,0,0,0,0,0,0,0,0
0,0,107,2039,-111,601,-33,1,233,0,0,0,0,0,0,0,0,0,0,0
0,0,105,2043,-114,601,-32,1,233,0,0,0,0,0,0,0,0,0,0,0
0,0,93,2041,-132,599,-32,1,199,0,0,0,0,0,0,0,0,0,0,0
0,0,104,2051,-112,600,-32,0,241,0,0,0,0,0,0,0,0,0,0,0
0,0,107,2058,-100,601,-32,2,10,0,0,0,0,0,0,0,0,0,0,0
0,0,103,2048,-113,600,-31,0,237,0,0,0,0,0,0,0,0,0,0,0
0,0,105,2050,-119,600,-32,2,236,0,0,0,0,0,0,0,0,0,0,0
0,0,94,2061,-110,600,-31,1,245,0,0,0,0,0,0,0,0,0,0,0
0,0,105,2054,-117,598,-32,3,241,0,0,0,0,0,0,0,0,0,0,0
0,0,100,2047,-107,600,-33,2,238,0,0,0,0,0,0,0,0,0,0,0
0,0,95,2057,-107,599,-33,3,244,0,0,0,0,0,0,0,0,0,0,0
0,0,97,2050,-117,600,-33,2,229,0,0,0,0,0,0,0,0,0,0,0
0,0,102,2048,-111,601,-32,0,238,0,0,0,0,0,0,0,0,0,0,0
0,0,99,2047,-114,602,-33,3,233,0,0,0,0,0,0,0,0,0,0,0
0,0,95,2046,-119,600,-31,0,220,0,0,0,0,0,0,0,0,0,0,0
0,0,99,2048,-116,601,-31,1,232,0,0,0,0,0,0,0,0,0,0,0
0,0,103,2042,-115,599,-31,2,229,0,0,0,0,0,0,0,0,0,0,0
0,0,101,2050,-117,600,-33,3,234,0,0,0,0,0,0,0,0,0,0,0
0,0,97,2048,-117,600,-32,2,228,0,0,0,0,0,0,0,0,0,0,0
0,0,101,2045,-118,600,-30,3,230,0,0,0,0,0,0,0,0,0,0,0
0,0,101,2051,-121,600,-31,4,234,0,0,0,0,0,0,0,0,0,0,0
0,0,98,2043,-116,600,-31,1,224,0,0,0,0,0,0,0,0,0,0,0
0,0,101,2046,-107,599,-31,2,239,0,0,0,0,0,0,0,0,0,0,0
0,0,95,2049,-109,600,-33,3,235,0,0,0,0,0,0,0,0,0,0,0
0,0,106,2043,-107,600,-32,1,240,0,0,0,0,0,0,0,0,0,0,0
0,0,103,2049,-108,599,-31,1,243,0,0,0,0,0,0,0,0,0,0,0
0,0,106,2043,-120,601,-33,2,228,0,0,0,0,0,0,0,0,0,0,0
0,0,98,2048,-107,598,-31,2,238,0,0,0,0,0,0,0,0,0,0,0
0,0,96,2049,-103,599,-31,0,240,0,0,0,0,0,0,0,0,0,0,0
0,0,100,2050,-114,600,-31,1,236,0,0,0,0,0,0,0,0,0,0,0
0,0,101,2049,-106,599,-33,0,240,0,0,0,0,0,0,0,0,0,0,0
0,0,98,2046,-111,601,-31,1,233,0,0,0,0,0,0,0,0,0,0,0
0,0,99,2051,-111,600,-32,1,238,0,0,0,0,0,0,0,0,0,0,0
0,0,109,2046,-116,600,-32,2,238,0,0,0,0,0,0,0,0,0,0,0
0,0,99,2056,-115,599,-32,0,237,0,0,0,0,0,0,0,0,0,0,0
0,0,102,2049,-103,598,-32,0,244,0,0,0,0,0,0,0,0,0,0,0
0,0,92,2053,-119,600,-31,2,227,0,0,0,0,0,0,0,0,0,0,0
0,0,97,2047,-111,601,-33,1,231,0,0,0,0,0,0,0,0,0,0,0
0,0,99,2048,-115,599,-32,2,231,0,0,0,0,0,0,0,0,0,0,0
0,0,101,2048,-120,601,-32,1,229,0,0,0,0,0,0,0,0,0,0,0
0,0,93,2050,-115,601,-32,2,229,0,0,0,0,0,0,0,0,0,0,0
0,0,97,2041,-113,602,-33,0,223,0,0,0,0,0,0,0,0,0,0,0
0,0,98,2047,-109,601,-32,2,236,0,0,0,0,0,0,0,0,0,0,0
0,0,104,2042,-119,600,-32,3,227,0,0,0,0,0,0,0,0,0,0,0
0,0,97,2051,-114,598,-33,0,229,0,0,0,0,0,0,0,0,0,0,0
0,0,96,2045,-111,598,-34,-1,221,0,0,0,0,0,0,0,0,0,0,0
0,0,101,2053,-110,599,-34,2,241,0,0,0,0,0,0,0,0,0,0,0
0,0,95,2049,-103,599,-31,1,240,0,0,0,0,0,0,0,0,0,0,0
0,0,104,2046,-114,600,-32,2,235,0,0,0,0,0,0,0,0,0,0,0
0,0,103,2042,-107,599,-32,2,236,0,0,0,0,0,0,0,0,0,0,0
0,0,97,2044,-107,601,-33,2,233,0,0,0,0,0,0,0,0,0,0,0
0,0,98,2053,-119,601,-33,0,230,0,0,0,0,0,0,0,0,0,0,0
0,0,98,2056,-125,598,-31,1,227,0,0,0,0,0,0,0,0,0,0,0
0,0,110,2052,-113,601,-31,2,251,0,0,0,0,0,0,0,0,0,0,0
0,0,100,2050,-110,599,-32,4,241,0,0,0,0,0,0,0,0,0,0,0
0,0,93,2049,-111,602,-32,0,231,0,0,0,0,0,0,0,0,0,0,0
0,0,92,2050,-111,600,-32,1,230,0,0,0,0,0,0,0,0,0,0,0
0,0,95,2046,-101,599,-33,0,235,0,0,0,0,0,0,0,0,0,0,0
0,0,102,2049,-116,599,-33,2,233,0,0,0,0,0,0,0,0,0,0,0
0,0,96,2044,-105,601,-34,3,234,0,0,0,0,0,0,0,0,0,0,0
0,0,98,2038,-104,599,-32,2,230,0,0,0,0,0,0,0,0,0,0,0
0,0,106,2044,-113,600,-32,4,238,0,0,0,0,0,0,0,0,0,0,0
0,0,101,2044,-112,600,-32,2,232,0,0,0,0,0,0,0,0,0,0,0
0,0,97,2047,-115,600,-31,-1,225,0,0,0,0,0,0,0,0,0,0,0
0,0,100,2043,-110,599,-32,3,232,0,0,0,0,0,0,0,0,0,0,0
0,0,104,2039,-106,600,-31,2,237,0,0,0,0,0,0,0,0,0,0,0
0,0,101,2048,-106,600,-34,2,241,0,0,0,0,0,0,0,0,0,0,0
0,0,95,2042,-126,600,-33,1,208,0,0,0,0,0,0,0,0,0,0,0
0,0,102,2047,-104,601,-31,2,246,0,0,0,0,0,0,0,0,0,0,0
0,0,110,2057,-104,599,-31,1,6,0,0,0,0,0,0,0,0,0,0,0
0,0,97,2044,-114,599,-33,0,222,0,0,0,0,0,0,0,0,0,0,0
0,0,99,2053,-112,600,-31,0,239,0,0,0,0,0,0,0,0,0,0,0
0,0,102,2053,-111,599,-31,1,243,0,0,0,0,0,0,0,0,0,0,0
0,0,104,2053,-114,599,-33,0,239,0,0,0,0,0,0,0,0,0,0,0
0,0,100,2045,-115,600,-33,1,227,0,0,0,0,0,0,0,0,0,0,0
0,0,104,2042,-114,599,-30,2,232,0,0,0,0,0,0,0,0,0,0,0
0,0,99,2048,-104,601,-33,1,242,0,0,0,0,0,0,0,0,0,0,0
0,0,99,2045,-110,599,-32,1,231,0,0,0,0,0,0,0,0,0,0,0
0,0,103,2042,-117,599,-31,2,227,0,0,0,0,0,0,0,0,0,0,0
0,0,100,2053,-114,600,-31,1,239,0,0,0,0,0,0,0,0,0,0,0
0,0,102,2050,-122,600,-32,1,229,0,0,0,0,0,0,0,0,0,0,0
0,0,103,2051,-116,600,-31,1,238,0,0,0,0,0,0,0,0,0,0,0
0,0,107,2050,-113,599,-30,1,244,0,0,0,0,0,0,0,0,0,0,0
0,0,105,2049,-116,601,-31,2,240,0,0,0,0,0,0,0,0,0,0,0
0,0,95,2049,-118,601,-33,0,224,0,0,0,0,0,0,0,0,0,0,0
0,0,105,2055,-110,602,-33,1,250,0,0,0,0,0,0,0,0,0,0,0
0,0,102,2049,-113,599,-32,-1,233,0,0,0,0,0,0,0,0,0,0,0
0,0,96,2044,-111,599,-33,2,226,0,0,0,0,0,0,0,0,0,0,0
0,0,102,2051,-104,601,-31,2,251,0,0,0,0,0,0,0,0,0,0,0
0,0,102,2043,-105,601,-32,0,238,0,0,0,0,0,0,0,0,0,0,0
0,0,103,2051,-117,602,-33,-1,234,0,0,0,0,0,0,0,0,0,0,0
0,0,98,2036,-102,599,-32,2,230,0,0,0,0,0,0,0,0,0,0,0
0,0,101,2051,-102,600,-31,2,251,0,0,0,0,0,0,0,0,0,0,0
0,0,96,2051,-117,600,-32,1,229,0,0,0,0,0,0,0,0,0,0,0
0,0,98,2047,-107,599,-32,2,236,0,0,0,0,0,0,0,0,0,0,0
0,0,103,2050,-109,600,-32,1,243,0,0,0,0,0,0,0,0,0,0,0
0,0,95,2057,-118,601,-31,1,235,0,0,0,0,0,0,0,0,0,0,0
0,0,99,2044,-106,602,-31,1,238,0,0,0,0,0,0,0,0,0,0,0
0,0,102,2044,-115,600,-33,1,228,0,0,0,0,0,0,0,0,0,0,0
0,0,95,2046,-108,599,-30,0,231,0,0,0,0,0,0,0,0,0,0,0
0,0,102,2041,-119,600,-32,1,222,0,0,0,0,0,0,0,0,0,0,0
0,0,99,2039,-112,601,-32,2,226,0,0,0,0,0,0,0,0,0,0,0
0,0,100,2046,-103,602,-32,-1,240,0,0,0,0,0,0,0,0,0,0,0
0,0,102,2042,-106,601,-32,2,238,0,0,0,0,0,0,0,0,0,0,0
0,0,97,2051,-112,599,-32,2,235,0,0,0,0,0,0,0,0,0,0,0
0,0,102,2042,-119,599,-33,2,222,0,0,0,0,0,0,0,0,0,0,0
0,0,100,2043,-113,598,-31,0,226,0,0,0,0,0,0,0,0,0,0,0
0,0,100,2050,-115,599,-32,2,234,0,0,0,0,0,0,0,0,0,0,0
0,0,105,2049,-125,601,-33,1,228,0,0,0,0,0,0,0,0,0,0,0
0,0,100,2049,-100,600,-32,2,249,0,0,0,0,0,0,0,0,0,0,0
0,0,98,2056,-108,598,-32,1,243,0,0,0,0,0,0,0,0,0,0,0
0,0,105,2050,-102,601,-32,1,253,0,0,0,0,0,0,0,0,0,0,0
0,0,105,2057,-114,599,-33,0,244,0,0,0,0,0,0,0,0,0,0,0
0,0,101,2053,-116,600,-31,0,237,0,0,0,0,0,0,0,0,0,0,0
0,0,92,2056,-117,598,-30,2,231,0,0,0,0,0,0,0,0,0,0,0
0,0,105,2052,-113,598,-31,0,241,0,0,0,0,0,0,0,0,0,0,0
0,0,98,2053,-119,599,-31,0,230,0,0,0,0,0,0,0,0,0,0,0
0,0,94,2049,-109,599,-33,2,232,0,0,0,0,0,0,0,0,0,0,0
0,0,96,2051,-104,600,-33,2,242,0,0,0,0,0,0,0,0,0,0,0
0,0,99,2050,-117,601,-31,2,234,0,0,0,0,0,0,0,0,0,0,0
0,0,96,2055,-108,599,-31,1,242,0,0,0,0,0,0,0,0,0,0,0
0,0,97,2054,-112,601,-31,1,240,0,0,0,0,0,0,0,0,0,0,0
0,0,92,2045,-112,601,-32,1,224,0,0,0,0,0,0,0,0,0,0,0
0,0,99,2046,-126,600,-32,1,217,0,0,0,0,0,0,0,0,0,0,0
0,0,107,2041,-109,600,-32,2,238,0,0,0,0,0,0,0,0,0,0,0
0,0,98,2042,-118,601,-31,1,222,0,0,0,0,0,0,0,0,0,0,0
0,0,98,2047,-108,601,-33,1,235,0,0,0,0,0,0,0,0,0,0,0
0,0,104,2047,-106,600,-32,1,243,0,0,0,0,0,0,0,0,0,0,0
0,0,104,2052,-109,599,-32,-1,242,0,0,0,0,0,0,0,0,0,0,0
0,0,100,2042,-98,602,-32,1,244,0,0,0,0,0,0,0,0,0,0,0
0,0,100,2044,-109,599,-32,3,234,0,0,0,0,0,0,0,0,0,0,0
0,0,103,2044,-106,599,-31,1,239,0,0,0,0,0,0,0,0,0,0,0
0,0,107,2042,-116,597,-33,1,227,0,0,0,0,0,0,0,0,0,0,0
0,0,105,2050,-109,601,-33,2,246,0,0,0,0,0,0,0,0,0,0,0
0,0,100,2053,-101,600,-33,2,251,0,0,0,0,0,0,0,0,0,0,0
0,0,106,2053,-100,600,-31,1,3,0,0,0,0,0,0,0,0,0,0,0
0,0,100,2048,-113,602,-31,1,237,0,0,0,0,0,0,0,0,0,0,0
0,0,97,2052,-116,600,-31,0,232,0,0,0,0,0,0,0,0,0,0,0
0,0,97,2045,-109,600,-31,2,233,0,0,0,0,0,0,0,0,0,0,0
0,0,95,2055,-102,600,-32,3,249,0,0,0,0,0,0,0,0,0,0,0
0,0,98,2053,-105,600,-31,0,245,0,0,0,0,0,0,0,0,0,0,0
0,0,103,2048,-107,602,-32,2,246,0,0,0,0,0,0,0,0,0,0,0
0,0,105,2050,-126,600,-33,1,227,0,0,0,0,0,0,0,0,0,0,0
0,0,99,2051,-115,600,-32,1,234,0,0,0,0,0,0,0,0,0,0,0
0,0,104,2050,-109,601,-33,1,244,0,0,0,0,0,0,0,0,0,0,0
0,0,103,2047,-115,600,-33,1,232,0,0,0,0,0,0,0,0,0,0,0
0,0,98,2050,-120,600,-32,0,226,0,0,0,0,0,0,0,0,0,0,0
0,0,97,2048,-107,599,-32,1,236,0,0,0,0,0,0,0,0,0,0,0
0,0,97,2053,-110,598,-33,1,236,0,0,0,0,0,0,0,0,0,0,0
0,0,105,2052,-117,600,-31,2,241,0,0,0,0,0,0,0,0,0,0,0
0,0,103,2048,-112,600,-33,2,238,0,0,0,0,0,0,0,0,0,0,0
0,0,98,2049,-116,600,-32,3,232,0,0,0,0,0,0,0,0,0,0,0
0,0,103,2053,-109,599,-33,1,244,0,0,0,0,0,0,0,0,0,0,0
0,0,110,2053,-107,599,-32,1,254,0,0,0,0,0,0,0,0,0,0,0
0,0,98,2045,-115,601,-32,1,227,0,0,0,0,0,0,0,0,0,0,0
0,0,101,2049,-112,600,-32,2,238,0,0,0,0,0,0,0,0,0,0,0
0,0,103,2049,-108,601,-32,1,244,0,0,0,0,0,0,0,0,0,0,0
0,0,103,2053,-109,600,-33,3,247,0,0,0,0,0,0,0,0,0,0,0
0,0,102,2047,-112,599,-32,0,233,0,0,0,0,0,0,0,0,0,0,0
0,0,88,2042,-111,601,-33,1,217,0,0,0,0,0,0,0,0,0,0,0
0,0,100,2045,-113,600,-32,0,229,0,0,0,0,0,0,0,0,0,0,0
0,0,94,2045,-116,600,-33,3,222,0,0,0,0,0,0,0,0,0,0,0
0,0,97,2049,-114,599,-33,3,231,0,0,0,0,0,0,0,0,0,0,0
0,0,105,2050,-113,599,-33,1,239,0,0,0,0,0,0,0,0,0,0,0
0,0,105,2043,-113,600,-30,1,235,0,0,0,0,0,0,0,0,0,0,0
0,0,102,2055,-119,599,-30,2,239,0,0,0,0,0,0,0,0,0,0,0
0,0,97,2043,-120,601,-33,1,218,0,0,0,0,0,0,0,0,0,0,0
0,0,98,2049,-108,601,-32,1,239,0,0,0,0,0,0,0,0,0,0,0
0,0,102,2046,-107,602,-32,0,240,0,0,0,0,0,0,0,0,0,0,0
0,0,96,2050,-109,599,-32,2,236,0,0,0,0,0,0,0,0,0,0,0
0,0,98,2050,-115,601,-32,1,233,0,0,0,0,0,0,0,0,0,0,0
0,0,101,2050,-106,598,-32,1,242,0,0,0,0,0,0,0,0,0,0,0
0,0,104,2047,-122,600,-31,0,227,0,0,0,0,0,0,0,0,0,0,0
0,0,101,2046,-107,600,-30,1,240,0,0,0,0,0,0,0,0,0,0,0
0,0,107,2053,-110,601,-30,0,251,0,0,0,0,0,0,0,0,0,0,0
0,0,101,2058,-115,599,-32,2,243,0,0,0,0,0,0,0,0,0,0,0
0,0,95,2048,-115,600,-29,1,230,0,0,0,0,0,0,0,0,0,0,0
0,0,98,2045,-115,602,-30,0,229,0,0,0,0,0,0,0,0,0,0,0
0,0,98,2045,-107,598,-31,1,233,0,0,0,0,0,0,0,0,0,0,0
0,0,103,2050,-123,599,-33,2,228,0,0,0,0,0,0,0,0,0,0,0
0,0,97,2045,-115,599,-32,0,223,0,0,0,0,0,0,0,0,0,0,0
0,0,99,2039,-97,601,-32,2,241,0,0,0,0,0,0,0,0,0,0,0
0,0,103,2046,-101,601,-32,2,248,0,0,0,0,0,0,0,0,0,0,0
0,0,99,2042,-117,601,-32,2,224,0,0,0,0,0,0,0,0,0,0,0
0,0,99,2050,-109,600,-32,1,239,0,0,0,0,0,0,0,0,0,0,0
0,0,94,2048,-111,600,-33,0,228,0,0,0,0,0,0,0,0,0,0,0
0,0,101,2047,-115,598,-31,1,230,0,0,0,0,0,0,0,0,0,0,0
0,0,105,2049,-111,602,-33,1,243,0,0,0,0,0,0,0,0,0,0,0
0,0,102,2055,-100,600,-33,3,1,0,0,0,0,0,0,0,0,0,0,0
0,0,101,2049,-108,601,-32,0,241,0,0,0,0,0,0,0,0,0,0,0
0,0,106,2036,-109,600,-33,2,231,0,0,0,0,0,0,0,0,0,0,0
0,0,107,2051,-105,602,-32,2,255,0,0,0,0,0,0,0,0,0,0,0
0,0,102,2046,-114,602,-32,2,235,0,0,0,0,0,0,0,0,0,0,0
0,0,93,2051,-123,598,-32,2,219,0,0,0,0,0,0,0,0,0,0,0
0,0,103,2051,-114,600,-32,1,239,0,0,0,0,0,0,0,0,0,0,0
0,0,109,2042,-118,602,-33,0,231,0,0,0,0,0,0,0,0,0,0,0
0,0,107,2047,-102,600,-34,0,247,0,0,0,0,0,0,0,0,0,0,0
0,0,98,2047,-107,601,-32,0,236,0,0,0,0,0,0,0,0,0,0,0
0,0,95,2045,-114,600,-34,0,221,0,0,0,0,0,0,0,0,0,0,0
0,0,101,2047,-116,599,-32,1,229,0,0,0,0,0,0,0,0,0,0,0
0,0,103,2049,-122,599,-32,-1,225,0,0,0,0,0,0,0,0,0,0,0
0,0,100,2053,-116,599,-32,2,236,0,0,0,0,0,0,0,0,0,0,0
0,0,102,2049,-125,599,-32,1,224,0,0,0,0,0,0,0,0,0,0,0
0,0,101,2045,-108,600,-32,1,236,0,0,0,0,0,0,0,0,0,0,0
0,0,96,2042,-113,600,-31,3,226,0,0,0,0,0,0,0,0,0,0,0
0,0,102,2050,-114,599,-30,2,239,0,0,0,0,0,0,0,0,0,0,0
0,0,108,2050,-118,601,-31,1,241,0,0,0,0,0,0,0,0,0,0,0
0,0,98,2046,-110,600,-34,2,231,0,0,0,0,0,0,0,0,0,0,0
0,0,99,2050,-112,599,-31,3,238,0,0,0,0,0,0,0,0,0,0,0
0,0,102,2048,-109,599,-33,2,239,0,0,0,0,0,0,0,0,0,0,0
0,0,100,2045,-113,599,-31,0,229,0,0,0,0,0,0,0,0,0,0,0
0,0,101,2044,-120,601,-31,2,226,0,0,0,0,0,0,0,0,0,0,0
0,0,98,2047,-111,600,-32,1,232,0,0,0,0,0,0,0,0,0,0,0
0,0,97,2048,-100,601,-33,0,243,0,0,0,0,0,0,0,0,0,0,0
0,0,92,2048,-113,602,-31,0,228,0,0,0,0,0,0,0,0,0,0,0
0,0,93,2046,-102,601,-32,2,237,0,0,0,0,0,0,0,0,0,0,0
0,0,97,2041,-110,603,-32,2,230,0,0,0,0,0,0,0,0,0,0,0
0,0,93,2051,-116,600,-33,1,226,0,0,0,0,0,0,0,0,0,0,0
0,0,103,2046,-112,600,-31,2,237,0,0,0,0,0,0,0,0,0,0,0
0,0,96,2048,-105,601,-30,2,242,0,0,0,0,0,0,0,0,0,0,0
0,0,104,2046,-107,601,-32,1,242,0,0,0,0,0,0,0,0,0,0,0
0,0,102,2049,-111,601,-32,1,240,0,0,0,0,0,0,0,0,0,0,0
0,0,104,2045,-130,601,-32,1,218,0,0,0,0,0,0,0,0,0,0,0
0,0,105,2052,-120,599,-31,2,237,0,0,0,0,0,0,0,0,0,0,0
0,0,104,2050,-108,597,-31,2,244,0,0,0,0,0,0,0,0,0,0,0
0,0,99,2048,-103,599,-32,3,244,0,0,0,0,0,0,0,0,0,0,0
0,0,103,2054,-102,599,-32,3,255,0,0,0,0,0,0,0,0,0,0,0
0,0,105,2038,-120,600,-30,1,223,0,0,0,0,0,0,0,0,0,0,0
0,0,102,2047,-115,601,-32,1,233,0,0,0,0,0,0,0,0,0,0,0
0,0,95,2041,-117,601,-32,2,219,0,0,0,0,0,0,0,0,0,0,0
0,0,100,2043,-110,600,-31,1,232,0,0,0,0,0,0,0,0,0,0,0
0,0,98,2052,-111,600,-32,2,239,0,0,0,0,0,0,0,0,0,0,0
0,0,99,2053,-113,601,-31,2,241,0,0,0,0,0,0,0,0,0,0,0
0,0,101,2054,-116,599,-32,0,236,0,0,0,0,0,0,0,0,0,0,0
0,0,97,2052,-113,599,-32,0,233,0,0,0,0,0,0,0,0,0,0,0
0,0,97,2052,-118,599,-31,2,231,0,0,0,0,0,0,0,0,0,0,0
0,0,98,2049,-111,599,-31,1,235,0,0,0,0,0,0,0,0,0,0,0
0,0,102,2045,-119,598,-31,1,225,0,0,0,0,0,0,0,0,0,0,0
0,0,97,2048,-113,599,-31,0,230,0,0,0,0,0,0,0,0,0,0,0
0,0,100,2052,-121,599,-32,1,229,0,0,0,0,0,0,0,0,0,0,0
0,0,100,2049,-101,599,-33,2,246,0,0,0,0,0,0,0,0,0,0,0
0,0,109,2054,-105,600,-32,3,3,0,0,0,0,0,0,0,0,0,0,0
0,0,99,2043,-104,600,-32,3,238,0,0,0,0,0,0,0,0,0,0,0
0,0,96,2042,-102,600,-32,0,233,0,0,0,0,0,0,0,0,0,0,0
0,0,104,2053,-118,600,-33,0,236,0,0,0,0,0,0,0,0,0,0,0
0,0,99,2051,-104,599,-33,1,243,0,0,0,0,0,0,0,0,0,0,0
0,0,97,2055,-114,600,-32,2,238,0,0,0,0,0,0,0,0,0,0,0
0,0,98,2041,-114,600,-32,1,223,0,0,0,0,0,0,0,0,0,0,0
0,0,100,2044,-119,602,-33,2,225,0,0,0,0,0,0,0,0,0,0,0
0,0,102,2047,-113,600,-31,2,236,0,0,0,0,0,0,0,0,0,0,0
0,0,105,2048,-105,600,-33,4,249,0,0,0,0,0,0,0,0,0,0,0
0,0,103,2047,-114,599,-32,1,233,0,0,0,0,0,0,0,0,0,0,0
0,0,100,2042,-104,600,-33,1,235,0,0,0,0,0,0,0,0,0,0,0
0,0,97,2045,-132,599,-32,-1,204,0,0,0,0,0,0,0,0,0,0,0
0,0,96,2043,-112,600,-32,1,225,0,0,0,0,0,0,0,0,0,0,0
0,0,98,2053,-114,600,-34,2,235,0,0,0,0,0,0,0,0,0,0,0
0,0,98,2046,-115,601,-32,2,229,0,0,0,0,0,0,0,0,0,0,0
0,0,104,2050,-112,598,-31,-1,237,0,0,0,0,0,0,0,0,0,0,0
0,0,96,2052,-122,599,-32,1,224,0,0,0,0,0,0,0,0,0,0,0
0,0,102,2049,-116,599,-32,2,234,0,0,0,0,0,0,0,0,0,0,0
0,0,106,2043,-108,598,-32,1,237,0,0,0,0,0,0,0,0,0,0,0
0,0,105,2041,-111,599,-31,0,232,0,0,0,0,0,0,0,0,0,0,0
0,0,98,2051,-113,599,-32,3,236,0,0,0,0,0,0,0,0,0,0,0
0,0,104,2044,-102,600,-32,1,244,0,0,0,0,0,0,0,0,0,0,0
0,0,99,2045,-117,600,-34,1,223,0,0,0,0,0,0,0,0,0,0,0
0,0,101,2053,-121,600,-34,1,230,0,0,0,0,0,0,0,0,0,0,0
0,0,99,2044,-117,599,-32,0,222,0,0,0,0,0,0,0,0,0,0,0
0,0,101,2040,-113,598,-32,1,224,0,0,0,0,0,0,0,0,0,0,0
0,0,98,2044,-104,599,-34,2,234,0,0,0,0,0,0,0,0,0,0,0
0,0,97,2054,-122,600,-31,1,229,0,0,0,0,0,0,0,0,0,0,0
0,0,98,2044,-124,600,-32,1,216,0,0,0,0,0,0,0,0,0,0,0
0,0,99,2047,-107,599,-31,0,236,0,0,0,0,0,0,0,0,0,0,0
0,0,109,2049,-99,601,-33,1,2,0,0,0,0,0,0,0,0,0,0,0
0,0,100,2046,-111,601,-31,0,234,0,0,0,0,0,0,0,0,0,0,0
0,0,101,2053,-104,600,-31,1,250,0,0,0,0,0,0,0,0,0,0,0
0,0,95,2048,-109,600,-32,-1,230,0,0,0,0,0,0,0,0,0,0,0
0,0,96,2051,-106,600,-31,0,240,0,0,0,0,0,0,0,0,0,0,0
0,0,98,2048,-112,601,-30,1,236,0,0,0,0,0,0,0,0,0,0,0
0,0,104,2052,-116,601,-31,1,241,0,0,0,0,0,0,0,0,0,0,0
0,0,100,2040,-114,600,-32,1,224,0,0,0,0,0,0,0,0,0,0,0
0,0,98,2043,-118,600,-31,0,221,0,0,0,0,0,0,0,0,0,0,0
0,0,101,2046,-110,599,-32,2,235,0,0,0,0,0,0,0,0,0,0,0
0,0,103,2053,-114,599,-33,2,240,0,0,0,0,0,0,0,0,0,0,0
0,0,105,2056,-105,599,-32,1,254,0,0,0,0,0,0,0,0,0,0,0
0,0,100,2046,-124,599,-31,2,221,0,0,0,0,0,0,0,0,0,0,0
0,0,104,2052,-119,601,-31,1,238,0,0,0,0,0,0,0,0,0,0,0
0,0,91,2049,-107,600,-32,2,233,0,0,0,0,0,0,0,0,0,0,0
0,0,96,2055,-117,600,-33,0,231,0,0,0,0,0,0,0,0,0,0,0
0,0,95,2052,-106,601,-30,3,245,0,0,0,0,0,0,0,0,0,0,0
0,0,97,2045,-118,600,-31,1,223,0,0,0,0,0,0,0,0,0,0,0
0,0,105,2043,-114,601,-30,2,236,0,0,0,0,0,0,0,0,0,0,0
0,0,96,2046,-116,601,-31,1,226,0,0,0,0,0,0,0,0,0,0,0
0,0,103,2051,-115,600,-32,2,239,0,0,0,0,0,0,0,0,0,0,0
0,0,103,2056,-114,600,-33,1,243,0,0,0,0,0,0,0,0,0,0,0
0,0,105,2041,-103,600,-34,1,239,0,0,0,0,0,0,0,0,0,0,0
0,0,103,2050,-111,601,-31,2,244,0,0,0,0,0,0,0,0,0,0,0
0,0,102,2045,-103,600,-31,0,242,0,0,0,0,0,0,0,0,0,0,0
0,0,103,2044,-118,599,-33,1,225,0,0,0,0,0,0,0,0,0,0,0
0,0,98,2051,-116,600,-32,0,231,0,0,0,0,0,0,0,0,0,0,0
0,0,104,2045,-111,599,-30,2,238,0,0,0,0,0,0,0,0,0,0,0
0,0,96,2050,-120,601,-33,1,225,0,0,0,0,0,0,0,0,0,0,0
0,0,104,2051,-108,598,-31,1,245,0,0,0,0,0,0,0,0,0,0,0
0,0,94,2046,-105,601,-32,1,234,0,0,0,0,0,0,0,0,0,0,0
0,0,98,2047,-113,601,-32,1,231,0,0,0,0,0,0,0,0,0,0,0
0,0,100,2048,-117,600,-30,0,231,0,0,0,0,0,0,0,0,0,0,0
0,0,102,2049,-117,601,-31,1,235,0,0,0,0,0,0,0,0,0,0,0
0,0,103,2051,-116,600,-32,1,237,0,0,0,0,0,0,0,0,0,0,0
0,0,97,2045,-105,599,-32,2,235,0,0,0,0,0,0,0,0,0,0,0
0,0,99,2045,-106,600,-32,3,238,0,0,0,0,0,0,0,0,0,0,0
0,0,99,2050,-119,599,-32,2,229,0,0,0,0,0,0,0,0,0,0,0
0,0,93,2046,-110,599,-32,1,226,0,0,0,0,0,0,0,0,0,0,0
0,0,101,2049,-119,602,-32,1,232,0,0,0,0,0,0,0,0,0,0,0
0,0,104,2046,-111,600,-31,0,237,0,0,0,0,0,0,0,0,0,0,0
0,0,102,2048,-107,601,-30,2,246,0,0,0,0,0,0,0,0,0,0,0
0,0,108,2043,-107,599,-31,2,243,0,0,0,0,0,0,0,0,0,0,0
0,0,99,2055,-112,599,-32,2,241,0,0,0,0,0,0,0,0,0,0,0
0,0,99,2049,-117,601,-31,1,232,0,0,0,0,0,0,0,0,0,0,0
0,0,101,2052,-116,601,-32,1,237,0,0,0,0,0,0,0,0,0,0,0
0,0,101,2050,-110,600,-31,2,242,0,0,0,0,0,0,0,0,0,0,0
0,0,103,2045,-112,600,-31,0,234,0,0,0,0,0,0,0,0,0,0,0
0,0,108,2046,-109,601,-30,3,248,0,0,0,0,0,0,0,0,0,0,0
0,0,98,2044,-106,600,-32,1,234,0,0,0,0,0,0,0,0,0,0,0
0,0,98,2052,-113,600,-31,1,237,0,0,0,0,0,0,0,0,0,0,0
0,0,98,2053,-108,600,-33,3,243,0,0,0,0,0,0,0,0,0,0,0
0,0,102,2054,-108,602,-32,1,249,0,0,0,0,0,0,0,0,0,0,0
0,0,97,2051,-102,600,-32,1,245,0,0,0,0,0,0,0,0,0,0,0
0,0,97,2045,-108,601,-31,1,234,0,0,0,0,0,0,0,0,0,0,0
0,0,105,2044,-122,600,-30,1,227,0,0,0,0,0,0,0,0,0,0,0
0,0,98,2039,-113,599,-31,2,223,0,0,0,0,0,0,0,0,0,0,0
0,0,95,2035,-114,600,-34,2,213,0,0,0,0,0,0,0,0,0,0,0
0,0,102,2046,-119,600,-32,2,228,0,0,0,0,0,0,0,0,0,0,0
0,0,100,2039,-106,598,-32,1,229,0,0,0,0,0,0,0,0,0,0,0
0,0,101,2051,-108,599,-31,1,243,0,0,0,0,0,0,0,0,0,0,0
0,0,103,2043,-110,600,-31,0,234,0,0,0,0,0,0,0,0,0,0,0
0,0,94,2040,-111,600,-31,1,222,0,0,0,0,0,0,0,0,0,0,0
0,0,94,2054,-120,600,-31,1,228,0,0,0,0,0,0,0,0,0,0,0
0,0,100,2052,-105,600,-33,2,246,0,0,0,0,0,0,0,0,0,0,0
0,0,100,2056,-108,601,-31,1,249,0,0,0,0,0,0,0,0,0,0,0
0,0,95,2055,-112,602,-34,3,239,0,0,0,0,0,0,0,0,0,0,0
0,0,102,2042,-115,599,-34,1,224,0,0,0,0,0,0,0,0,0,0,0
0,0,98,2042,-116,599,-33,1,220,0,0,0,0,0,0,0,0,0,0,0
0,0,105,2051,-113,600,-30,2,245,0,0,0,0,0,0,0,0,0,0,0
0,0,100,2055,-124,601,-32,2,232,0,0,0,0,0,0,0,0,0,0,0
0,0,105,2047,-110,600,-32,2,241,0,0,0,0,0,0,0,0,0,0,0
0,0,106,2046,-108,600,-33,1,241,0,0,0,0,0,0,0,0,0,0,0
0,0,100,2051,-103,599,-31,0,246,0,0,0,0,0,0,0,0,0,0,0
0,0,99,2047,-112,600,-33,1,231,0,0,0,0,0,0,0,0,0,0,0
0,0,98,2054,-118,599,-30,2,235,0,0,0,0,0,0,0,0,0,0,0
0,0,97,2041,-107,602,-34,2,230,0,0,0,0,0,0,0,0,0,0,0
0,0,98,2038,-107,600,-31,0,227,0,0,0,0,0,0,0,0,0,0,0
0,0,101,2048,-118,601,-31,0,231,0,0,0,0,0,0,0,0,0,0,0
0,0,103,2041,-104,601,-32,2,240,0,0,0,0,0,0,0,0,0,0,0
0,0,99,2047,-117,599,-31,2,228,0,0,0,0,0,0,0,0,0,0,0
0,0,96,2045,-110,601,-31,1,231,0,0,0,0,0,0,0,0,0,0,0
0,0,97,2044,-113,600,-31,3,229,0,0,0,0,0,0,0,0,0,0,0
0,0,96,2059,-107,599,-32,0,245,0,0,0,0,0,0,0,0,0,0,0
0,0,95,2059,-105,600,-31,2,250,0,0,0,0,0,0,0,0,0,0,0
0,0,101,2049,-113,599,-33,3,236,0,0,0,0,0,0,0,0,0,0,0
0,0,102,2043,-118,601,-34,2,225,0,0,0,0,0,0,0,0,0,0,0
0,0,101,2048,-106,598,-33,1,239,0,0,0,0,0,0,0,0,0,0,0
0,0,106,2051,-100,599,-33,1,254,0,0,0,0,0,0,0,0,0,0,0
0,0,99,2046,-105,599,-32,1,237,0,0,0,0,0,0,0,0,0,0,0
0,0,100,2047,-118,600,-32,1,227,0,0,0,0,0,0,0,0,0,0,0
0,0,105,2043,-116,600,-32,1,230,0,0,0,0,0,0,0,0,0,0,0
0,0,104,2041,-120,600,-32,1,223,0,0,0,0,0,0,0,0,0,0,0
0,0,99,2049,-127,599,-33,1,218,0,0,0,0,0,0,0,0,0,0,0
0,0,98,2049,-121,600,-32,2,226,0,0,0,0,0,0,0,0,0,0,0
0,0,93,2051,-105,599,-31,1,238,0,0,0,0,0,0,0,0,0,0,0
0,0,105,2044,-116,600,-31,2,233,0,0,0,0,0,0,0,0,0,0,0
0,0,105,2042,-113,601,-31,0,233,0,0,0,0,0,0,0,0,0,0,0
0,0,99,2045,-109,600,-33,2,233,0,0,0,0,0,0,0,0,0,0,0
0,0,94,2044,-112,601,-33,-1,221,0,0,0,0,0,0,0,0,0,0,0
0,0,97,2051,-110,599,-31,1,237,0,0,0,0,0,0,0,0,0,0,0
0,0,99,2044,-111,601,-32,0,230,0,0,0,0,0,0,0,0,0,0,0
0,0,100,2053,-114,598,-33,1,235,0,0,0,0,0,0,0,0,0,0,0
0,0,101,2047,-114,599,-30,1,233,0,0,0,0,0,0,0,0,0,0,0
0,0,98,2043,-110,598,-32,1,227,0,0,0,0,0,0,0,0,0,0,0
0,0,101,2055,-116,600,-31,3,242,0,0,0,0,0,0,0,0,0,0,0
0,0,105,2052,-105,599,-32,2,251,0,0,0,0,0,0,0,0,0,0,0
0,0,101,2049,-118,599,-32,1,230,0,0,0,0,0,0,0,0,0,0,0
0,0,102,2054,-109,600,-32,1,246,0,0,0,0,0,0,0,0,0,0,0
0,0,109,2049,-109,599,-33,0,245,0,0,0,0,0,0,0,0,0,0,0
0,0,109,2050,-112,602,-31,1,249,0,0,0,0,0,0,0,0,0,0,0
0,0,102,2054,-111,600,-31,1,245,0,0,0,0,0,0,0,0,0,0,0
0,0,89,2052,-118,599,-30,1,223,0,0,0,0,0,0,0,0,0,0,0
0,0,92,2055,-116,600,-33,1,229,0,0,0,0,0,0,0,0,0,0,0
0,0,98,2047,-119,601,-33,-1,221,0,0,0,0,0,0,0,0,0,0,0
0,0,102,2047,-109,601,-32,3,241,0,0,0,0,0,0,0,0,0,0,0
0,0,102,2052,-114,600,-31,2,241,0,0,0,0,0,0,0,0,0,0,0
0,0,104,2049,-104,599,-31,1,248,0,0,0,0,0,0,0,0,0,0,0
0,0,96,2047,-110,600,-31,3,234,0,0,0,0,0,0,0,0,0,0,0
0,0,99,2046,-122,600,-33,2,221,0,0,0,0,0,0,0,0,0,0,0
0,0,100,2044,-125,599,-31,2,218,0,0,0,0,0,0,0,0,0,0,0
0,0,98,2050,-116,600,-33,3,232,0,0,0,0,0,0,0,0,0,0,0
0,0,97,2049,-127,600,-34,0,215,0,0,0,0,0,0,0,0,0,0,0
0,0,99,2050,-121,600,-31,1,228,0,0,0,0,0,0,0,0,0,0,0
0,0,97,2048,-108,600,-30,2,239,0,0,0,0,0,0,0,0,0,0,0
0,0,102,2046,-110,599,-31,2,237,0,0,0,0,0,0,0,0,0,0,0
0,0,97,2046,-110,601,-33,3,233,0,0,0,0,0,0,0,0,0,0,0
0,0,105,2047,-121,603,-31,1,233,0,0,0,0,0,0,0,0,0,0,0
0,0,105,2056,-114,602,-33,1,247,0,0,0,0,0,0,0,0,0,0,0
0,0,94,2048,-118,598,-31,2,223,0,0,0,0,0,0,0,0,0,0,0
0,0,97,2045,-105,598,-31,3,236,0,0,0,0,0,0,0,0,0,0,0
0,0,102,2046,-112,599,-33,1,232,0,0,0,0,0,0,0,0,0,0,0
0,0,108,2052,-109,600,-33,0,248,0,0,0,0,0,0,0,0,0,0,0
0,0,100,2054,-112,600,-31,0,241,0,0,0,0,0,0,0,0,0,0,0
0,0,97,2048,-121,601,-31,-1,222,0,0,0,0,0,0,0,0,0,0,0
0,0,102,2043,-108,601,-32,1,236,0,0,0,0,0,0,0,0,0,0,0
0,0,102,2040,-115,600,-32,1,225,0,0,0,0,0,0,0,0,0,0,0
0,0,99,2037,-90,600,-33,0,242,0,0,0,0,0,0,0,0,0,0,0
0,0,99,2044,-110,600,-32,1,231,0,0,0,0,0,0,0,0,0,0,0
0,0,106,2044,-110,601,-32,2,240,0,0,0,0,0,0,0,0,0,0,0
0,0,99,2045,-118,599,-33,1,222,0,0,0,0,0,0,0,0,0,0,0
0,0,97,2049,-113,598,-34,1,228,0,0,0,0,0,0,0,0,0,0,0
0,0,103,2047,-111,600,-34,0,234,0,0,0,0,0,0,0,0,0,0,0
0,0,104,2052,-114,600,-32,1,241,0,0,0,0,0,0,0,0,0,0,0
0,0,102,2050,-112,599,-30,2,241,0,0,0,0,0,0,0,0,0,0,0
0,0,103,2056,-113,598,-31,1,244,0,0,0,0,0,0,0,0,0,0,0
0,0,92,2048,-113,600,-32,3,228,0,0,0,0,0,0,0,0,0,0,0
0,0,101,2047,-111,601,-31,1,237,0,0,0,0,0,0,0,0,0,0,0
0,0,103,2048,-118,601,-32,1,233,0,0,0,0,0,0,0,0,0,0,0
0,0,98,2048,-112,599,-32,2,233,0,0,0,0,0,0,0,0,0,0,0
0,0,92,2050,-113,599,-33,3,228,0,0,0,0,0,0,0,0,0,0,0
0,0,97,2051,-114,600,-33,2,233,0,0,0,0,0,0,0,0,0,0,0
0,0,99,2047,-113,599,-32,1,230,0,0,0,0,0,0,0,0,0,0,0
0,0,105,2048,-115,600,-31,2,239,0,0,0,0,0,0,0,0,0,0,0
0,0,90,2044,-117,600,-32,2,216,0,0,0,0,0,0,0,0,0,0,0
0,0,99,2050,-107,601,-33,0,240,0,0,0,0,0,0,0,0,0,0,0
0,0,99,2042,-99,598,-31,3,241,0,0,0,0,0,0,0,0,0,0,0
0,0,98,2045,-101,598,-32,1,238,0,0,0,0,0,0,0,0,0,0,0
0,0,99,2053,-106,597,-33,1,241,0,0,0,0,0,0,0,0,0,0,0
0,0,97,2045,-108,598,-31,2,232,0,0,0,0,0,0,0,0,0,0,0
0,0,105,2042,-99,599,-30,2,248,0,0,0,0,0,0,0,0,0,0,0
0,0,97,2045,-104,599,-31,1,236,0,0,0,0,0,0,0,0,0,0,0
0,0,102,2048,-112,600,-32,1,237,0,0,0,0,0,0,0,0,0,0,0
0,0,102,2048,-112,601,-31,2,240,0,0,0,0,0,0,0,0,0,0,0
0,0,100,2053,-120,600,-31,2,234,0,0,0,0,0,0,0,0,0,0,0
0,0,100,2047,-123,601,-32,1,223,0,0,0,0,0,0,0,0,0,0,0
0,0,103,2053,-104,601,-31,1,253,0,0,0,0,0,0,0,0,0,0,0
0,0,100,2046,-110,600,-34,-1,229,0,0,0,0,0,0,0,0,0,0,0
0,0,103,2045,-117,601,-34,1,228,0,0,0,0,0,0,0,0,0,0,0
0,0,105,2045,-104,601,-30,1,247,0,0,0,0,0,0,0,0,0,0,0
0,0,99,2048,-114,601,-33,1,232,0,0,0,0,0,0,0,0,0,0,0
0,0,91,2046,-118,603,-31,1,221,0,0,0,0,0,0,0,0,0,0,0
0,0,99,2046,-104,599,-33,2,238,0,0,0,0,0,0,0,0,0,0,0
0,0,104,2038,-120,600,-31,2,222,0,0,0,0,0,0,0,0,0,0,0
0,0,105,2049,-116,601,-32,0,237,0,0,0,0,0,0,0,0,0,0,0
0,0,103,2050,-113,601,-32,1,240,0,0,0,0,0,0,0,0,0,0,0
0,0,99,2055,-115,600,-32,0,237,0,0,0,0,0,0,0,0,0,0,0
0,0,98,2056,-111,598,-31,2,242,0,0,0,0,0,0,0,0,0,0,0
0,0,101,2048,-105,598,-32,1,241,0,0,0,0,0,0,0,0,0,0,0
0,0,102,2046,-118,598,-31,1,227,0,0,0,0,0,0,0,0,0,0,0
0,0,99,2051,-106,600,-32,2,244,0,0,0,0,0,0,0,0,0,0,0
0,0,106,2053,-111,601,-32,2,249,0,0,0,0,0,0,0,0,0,0,0
0,0,101,2050,-105,602,-31,3,250,0,0,0,0,0,0,0,0,0,0,0
0,0,94,2046,-108,601,-33,1,230,0,0,0,0,0,0,0,0,0,0,0
0,0,100,2040,-116,600,-31,2,224,0,0,0,0,0,0,0,0,0,0,0
0,0,99,2040,-110,601,-31,1,229,0,0,0,0,0,0,0,0,0,0,0
0,0,102,2053,-108,601,-30,2,250,0,0,0,0,0,0,0,0,0,0,0
0,0,95,2045,-117,599,-32,1,220,0,0,0,0,0,0,0,0,0,0,0
0,0,98,2053,-120,600,-32,2,231,0,0,0,0,0,0,0,0,0,0,0
0,0,104,2052,-108,601,-32,3,250,0,0,0,0,0,0,0,0,0,0,0
0,0,97,2053,-118,600,-33,1,230,0,0,0,0,0,0,0,0,0,0,0
0,0,100,2051,-103,601,-31,3,251,0,0,0,0,0,0,0,0,0,0,0
0,0,104,2050,-111,599,-31,0,241,0,0,0,0,0,0,0,0,0,0,0
0,0,103,2049,-121,600,-30,1,232,0,0,0,0,0,0,0,0,0,0,0
0,0,99,2043,-109,601,-31,0,232,0,0,0,0,0,0,0,0,0,0,0
0,0,106,2045,-113,598,-33,0,232,0,0,0,0,0,0,0,0,0,0,0
0,0,102,2047,-107,599,-32,0,238,0,0,0,0,0,0,0,0,0,0,0
0,0,100,2042,-106,599,-31,2,235,0,0,0,0,0,0,0,0,0,0,0
0,0,105,2049,-118,598,-30,1,235,0,0,0,0,0,0,0,0,0,0,0
0,0,97,2044,-121,600,-31,0,218,0,0,0,0,0,0,0,0,0,0,0
0,0,95,2042,-117,598,-30,1,218,0,0,0,0,0,0,0,0,0,0,0
0,0,90,2049,-105,598,-31,1,232,0,0,0,0,0,0,0,0,0,0,0
0,0,92,2049,-112,599,-32,0,226,0,0,0,0,0,0,0,0,0,0,0
0,0,103,2047,-132,601,-31,1,218,0,0,0,0,0,0,0,0,0,0,0
0,0,100,2061,-118,601,-32,2,244,0,0,0,0,0,0,0,0,0,0,0
0,0,99,2052,-120,603,-31,1,234,0,0,0,0,0,0,0,0,0,0,0
0,0,93,2048,-119,600,-33,2,221,0,0,0,0,0,0,0,0,0,0,0
0,0,101,2058,-116,599,-33,3,242,0,0,0,0,0,0,0,0,0,0,0
0,0,109,2054,-120,601,-31,2,245,0,0,0,0,0,0,0,0,0,0,0
0,0,97,2052,-102,600,-33,1,245,0,0,0,0,0,0,0,0,0,0,0
0,0,99,2054,-118,600,-31,1,235,0,0,0,0,0,0,0,0,0,0,0
0,0,101,2047,-113,601,-31,0,234,0,0,0,0,0,0,0,0,0,0,0
0,0,93,2046,-106,600,-32,1,231,0,0,0,0,0,0,0,0,0,0,0
0,0,99,2047,-102,599,-32,1,241,0,0,0,0,0,0,0,0,0,0,0
0,0,93,2044,-112,601,-31,2,226,0,0,0,0,0,0,0,0,0,0,0
0,0,99,2045,-115,601,-30,1,230,0,0,0,0,0,0,0,0,0,0,0
0,0,108,2052,-109,600,-32,1,250,0,0,0,0,0,0,0,0,0,0,0
0,0,98,2045,-119,600,-32,2,223,0,0,0,0,0,0,0,0,0,0,0
0,0,106,2045,-119,601,-32,2,232,0,0,0,0,0,0,0,0,0,0,0
0,0,102,2050,-111,600,-30,1,242,0,0,0,0,0,0,0,0,0,0,0
0,0,103,2049,-113,602,-32,2,241,0,0,0,0,0,0,0,0,0,0,0
0,0,97,2045,-121,601,-31,1,221,0,0,0,0,0,0,0,0,0,0,0
0,0,99,2043,-109,600,-31,0,231,0,0,0,0,0,0,0,0,0,0,0
0,0,94,2047,-123,598,-31,2,216,0,0,0,0,0,0,0,0,0,0,0
0,0,106,2047,-112,600,-32,1,239,0,0,0,0,0,0,0,0,0,0,0
0,0,100,2047,-110,599,-32,2,235,0,0,0,0,0,0,0,0,0,0,0
0,0,106,2046,-113,600,-32,2,238,0,0,0,0,0,0,0,0,0,0,0
0,0,96,2050,-116,599,-31,1,229,0,0,0,0,0,0,0,0,0,0,0
0,0,102,2050,-109,600,-34,0,239,0,0,0,0,0,0,0,0,0,0,0
0,0,105,2048,-113,600,-33,3,240,0,0,0,0,0,0,0,0,0,0,0
0,0,105,2050,-117,600,-31,2,239,0,0,0,0,0,0,0,0,0,0,0
0,0,107,2053,-105,599,-30,2,0,0,0,0,0,0,0,0,0,0,0,0
0,0,103,2041,-108,602,-32,1,236,0,0,0,0,0,0,0,0,0,0,0
0,0,105,2048,-106,601,-32,1,247,0,0,0,0,0,0,0,0,0,0,0
0,0,105,2045,-119,601,-32,2,231,0,0,0,0,0,0,0,0,0,0,0
0,0,102,2045,-112,601,-31,1,235,0,0,0,0,0,0,0,0,0,0,0
0,0,104,2041,-112,599,-33,2,230,0,0,0,0,0,0,0,0,0,0,0
0,0,99,2048,-119,599,-33,2,226,0,0,0,0,0,0,0,0,0,0,0
0,0,104,2042,-108,599,-31,2,237,0,0,0,0,0,0,0,0,0,0,0
0,0,101,2044,-127,601,-33,2,217,0,0,0,0,0,0,0,0,0,0,0
0,0,97,2044,-120,599,-32,1,218,0,0,0,0,0,0,0,0,0,0,0
0,0,101,2050,-123,600,-31,1,228,0,0,0,0,0,0,0,0,0,0,0
0,0,96,2048,-118,601,-32,0,225,0,0,0,0,0,0,0,0,0,0,0
0,0,99,2053,-119,602,-32,2,235,0,0,0,0,0,0,0,0,0,0,0
0,0,96,2044,-117,600,-32,2,222,0,0,0,0,0,0,0,0,0,0,0
0,0,103,2046,-109,599,-33,0,235,0,0,0,0,0,0,0,0,0,0,0
0,0,102,2049,-113,602,-31,2,241,0,0,0,0,0,0,0,0,0,0,0
0,0,102,2057,-101,601,-30,-1,1,0,0,0,0,0,0,0,0,0,0,0
0,0,105,2053,-102,600,-31,2,1,0,0,0,0,0,0,0,0,0,0,0
0,0,98,2050,-109,601,-32,3,241,0,0,0,0,0,0,0,0,0,0,0
0,0,101,2050,-103,600,-31,0,247,0,0,0,0,0,0,0,0,0,0,0
0,0,102,2043,-117,600,-33,1,225,0,0,0,0,0,0,0,0,0,0,0
0,0,102,2049,-111,601,-33,2,240,0,0,0,0,0,0,0,0,0,0,0
0,0,103,2052,-118,600,-31,2,238,0,0,0,0,0,0,0,0,0,0,0
0,0,104,2049,-112,600,-33,1,239,0,0,0,0,0,0,0,0,0,0,0
0,0,100,2050,-102,600,-34,2,246,0,0,0,0,0,0,0,0,0,0,0
0,0,105,2047,-108,599,-31,2,243,0,0,0,0,0,0,0,0,0,0,0
0,0,94,2049,-111,602,-32,0,232,0,0,0,0,0,0,0,0,0,0,0
0,0,92,2043,-112,601,-32,1,222,0,0,0,0,0,0,0,0,0,0,0
0,0,100,2049,-117,598,-33,1,228,0,0,0,0,0,0,0,0,0,0,0
0,0,101,2049,-129,601,-32,2,222,0,0,0,0,0,0,0,0,0,0,0
0,0,99,2043,-120,599,-32,1,219,0,0,0,0,0,0,0,0,0,0,0
0,0,103,2052,-106,599,-32,1,247,0,0,0,0,0,0,0,0,0,0,0
0,0,102,2041,-127,600,-32,2,215,0,0,0,0,0,0,0,0,0,0,0
0,0,98,2045,-120,601,-31,2,224,0,0,0,0,0,0,0,0,0,0,0
0,0,99,2046,-116,601,-31,1,229,0,0,0,0,0,0,0,0,0,0,0
0,0,102,2052,-112,601,-32,0,241,0,0,0,0,0,0,0,0,0,0,0
0,0,98,2047,-110,599,-33,2,232,0,0,0,0,0,0,0,0,0,0,0
0,0,104,2049,-101,600,-31,1,252,0,0,0,0,0,0,0,0,0,0,0
0,0,102,2054,-118,600,-33,1,236,0,0,0,0,0,0,0,0,0,0,0
0,0,109,2049,-113,599,-32,3,245,0,0,0,0,0,0,0,0,0,0,0
0,0,101,2050,-109,600,-31,1,242,0,0,0,0,0,0,0,0,0,0,0
0,0,101,2050,-113,600,-33,0,235,0,0,0,0,0,0,0,0,0,0,0
0,0,94,2047,-106,600,-32,1,233,0,0,0,0,0,0,0,0,0,0,0
0,0,101,2051,-107,599,-32,1,243,0,0,0,0,0,0,0,0,0,0,0
0,0,101,2044,-111,601,-31,1,234,0,0,0,0,0,0,0,0,0,0,0
0,0,99,2045,-115,599,-32,3,228,0,0,0,0,0,0,0,0,0,0,0
0,0,97,2041,-125,600,-32,2,212,0,0,0,0,0,0,0,0,0,0,0
0,0,97,2041,-109,599,-31,2,228,0,0,0,0,0,0,0,0,0,0,0
0,0,106,2043,-115,599,-32,1,231,0,0,0,0,0,0,0,0,0,0,0
0,0,109,2044,-119,600,-33,2,232,0,0,0,0,0,0,0,0,0,0,0
0,0,99,2050,-116,600,-31,0,232,0,0,0,0,0,0,0,0,0,0,0
0,0,99,2041,-118,599,-32,3,221,0,0,0,0,0,0,0,0,0,0,0
0,0,96,2054,-112,600,-32,4,240,0,0,0,0,0,0,0,0,0,0,0
0,0,103,2048,-120,601,-33,1,230,0,0,0,0,0,0,0,0,0,0,0
0,0,97,2051,-115,601,-32,2,234,0,0,0,0,0,0,0,0,0,0,0
0,0,105,2049,-114,600,-31,0,239,0,0,0,0,0,0,0,0,0,0,0
0,0,97,2050,-115,600,-32,0,230,0,0,0,0,0,0,0,0,0,0,0
0,0,98,2054,-109,598,-32,1,240,0,0,0,0,0,0,0,0,0,0,0
0,0,102,2051,-106,600,-32,1,246,0,0,0,0,0,0,0,0,0,0,0
0,0,100,2049,-111,599,-32,0,235,0,0,0,0,0,0,0,0,0,0,0
0,0,102,2047,-109,598,-32,2,237,0,0,0,0,0,0,0,0,0,0,0
0,0,101,2050,-106,600,-31,0,244,0,0,0,0,0,0,0,0,0,0,0
0,0,100,2056,-108,600,-33,2,247,0,0,0,0,0,0,0,0,0,0,0
0,0,99,2048,-119,600,-32,2,228,0,0,0,0,0,0,0,0,0,0,0
0,0,101,2047,-126,600,-30,2,223,0,0,0,0,0,0,0,0,0,0,0
0,0,99,2050,-120,601,-33,1,228,0,0,0,0,0,0,0,0,0,0,0
0,0,106,2050,-112,600,-32,2,244,0,0,0,0,0,0,0,0,0,0,0
0,0,95,2050,-110,599,-32,1,233,0,0,0,0,0,0,0,0,0,0,0
0,0,95,2038,-123,600,-32,1,208,0,0,0,0,0,0,0,0,0,0,0
0,0,102,2047,-111,600,-32,1,236,0,0,0,0,0,0,0,0,0,0,0
0,0,99,2046,-115,599,-32,1,227,0,0,0,0,0,0,0,0,0,0,0
0,0,97,2047,-117,600,-33,2,225,0,0,0,0,0,0,0,0,0,0,0
0,0,99,2045,-115,600,-33,0,225,0,0,0,0,0,0,0,0,0,0,0
0,0,96,2046,-104,598,-32,1,234,0,0,0,0,0,0,0,0,0,0,0
0,0,94,2052,-112,599,-30,1,234,0,0,0,0,0,0,0,0,0,0,0
0,0,104,2053,-108,600,-33,0,246,0,0,0,0,0,0,0,0,0,0,0
0,0,98,2046,-122,601,-31,-1,219,0,0,0,0,0,0,0,0,0,0,0
0,0,90,2046,-115,600,-30,1,221,0,0,0,0,0,0,0,0,0,0,0
0,0,99,2045,-109,600,-32,1,233,0,0,0,0,0,0,0,0,0,0,0
0,0,96,2055,-107,600,-33,0,241,0,0,0,0,0,0,0,0,0,0,0
0,0,92,2045,-114,601,-30,2,225,0,0,0,0,0,0,0,0,0,0,0
0,0,99,2047,-116,599,-31,1,228,0,0,0,0,0,0,0,0,0,0,0
0,0,104,2047,-117,599,-33,2,231,0,0,0,0,0,0,0,0,0,0,0
0,0,97,2060,-108,599,-33,2,247,0,0,0,0,0,0,0,0,0,0,0
0,0,102,2048,-110,600,-30,2,242,0,0,0,0,0,0,0,0,0,0,0
0,0,107,2052,-114,601,-31,1,246,0,0,0,0,0,0,0,0,0,0,0
0,0,103,2047,-113,600,-33,1,234,0,0,0,0,0,0,0,0,0,0,0
0,0,99,2050,-108,601,-33,1,240,0,0,0,0,0,0,0,0,0,0,0
0,0,105,2044,-105,602,-34,2,243,0,0,0,0,0,0,0,0,0,0,0
0,0,100,2046,-109,600,-33,0,233,0,0,0,0,0,0,0,0,0,0,0
0,0,97,2045,-115,600,-32,1,225,0,0,0,0,0,0,0,0,0,0,0
0,0,99,2049,-114,600,-33,-1,229,0,0,0,0,0,0,0,0,0,0,0
0,0,103,2048,-111,601,-33,1,239,0,0,0,0,0,0,0,0,0,0,0
0,0,103,2053,-120,602,-32,1,237,0,0,0,0,0,0,0,0,0,0,0
0,0,100,2047,-113,600,-34,2,231,0,0,0,0,0,0,0,0,0,0,0
0,0,98,2052,-110,599,-34,0,235,0,0,0,0,0,0,0,0,0,0,0
0,0,96,2052,-114,600,-32,0,232,0,0,0,0,0,0,0,0,0,0,0
0,0,101,2051,-120,599,-32,0,229,0,0,0,0,0,0,0,0,0,0,0
0,0,98,2051,-110,600,-33,0,236,0,0,0,0,0,0,0,0,0,0,0
0,0,102,2060,-116,599,-33,1,243,0,0,0,0,0,0,0,0,0,0,0
0,0,99,2054,-111,600,-32,1,241,0,0,0,0,0,0,0,0,0,0,0
0,0,106,2058,-107,599,-32,1,255,0,0,0,0,0,0,0,0,0,0,0
0,0,102,2051,-112,599,-32,2,240,0,0,0,0,0,0,0,0,0,0,0
0,0,99,2055,-110,599,-33,1,241,0,0,0,0,0,0,0,0,0,0,0
0,0,96,2048,-105,600,-32,-1,235,0,0,0,0,0,0,0,0,0,0,0
0,0,100,2041,-114,600,-32,2,226,0,0,0,0,0,0,0,0,0,0,0
0,0,91,2051,-119,600,-31,2,224,0,0,0,0,0,0,0,0,0,0,0
0,0,100,2047,-119,600,-33,2,226,0,0,0,0,0,0,0,0,0,0,0
0,0,97,2041,-127,598,-32,-1,204,0,0,0,0,0,0,0,0,0,0,0
0,0,105,2042,-112,600,-32,3,235,0,0,0,0,0,0,0,0,0,0,0
0,0,104,2046,-110,599,-32,2,238,0,0,0,0,0,0,0,0,0,0,0
0,0,109,2052,-111,601,-31,1,251,0,0,0,0,0,0,0,0,0,0,0
0,0,103,2046,-120,601,-30,1,230,0,0,0,0,0,0,0,0,0,0,0
0,0,103,2046,-118,601,-32,3,232,0,0,0,0,0,0,0,0,0,0,0
0,0,107,2049,-120,600,-32,2,236,0,0,0,0,0,0,0,0,0,0,0
0,0,97,2059,-110,601,-35,1,243,0,0,0,0,0,0,0,0,0,0,0
0,0,97,2047,-119,598,-32,1,221,0,0,0,0,0,0,0,0,0,0,0
0,0,94,2050,-116,600,-31,2,229,0,0,0,0,0,0,0,0,0,0,0
0,0,103,2051,-120,600,-30,2,236,0,0,0,0,0,0,0,0,0,0,0
0,0,102,2051,-115,600,-32,2,238,0,0,0,0,0,0,0,0,0,0,0
0,0,101,2054,-123,599,-32,0,229,0,0,0,0,0,0,0,0,0,0,0
0,0,95,2045,-113,600,-32,2,226,0,0,0,0,0,0,0,0,0,0,0
0,0,98,2047,-118,600,-33,1,224,0,0,0,0,0,0,0,0,0,0,0
0,0,108,2049,-115,600,-32,1,241,0,0,0,0,0,0,0,0,0,0,0
0,0,99,2048,-99,600,-31,1,248,0,0,0,0,0,0,0,0,0,0,0
0,0,101,2042,-103,601,-30,-1,238,0,0,0,0,0,0,0,0,0,0,0
0,0,100,2048,-103,600,-32,1,244,0,0,0,0,0,0,0,0,0,0,0
0,0,92,2050,-108,601,-33,2,234,0,0,0,0,0,0,0,0,0,0,0
0,0,95,2048,-110,599,-32,1,231,0,0,0,0,0,0,0,0,0,0,0
0,0,102,2044,-106,600,-32,3,240,0,0,0,0,0,0,0,0,0,0,0
0,0,98,2046,-114,599,-32,0,226,0,0,0,0,0,0,0,0,0,0,0
0,0,89,2051,-102,599,-33,2,236,0,0,0,0,0,0,0,0,0,0,0
0,0,98,2054,-117,601,-32,2,236,0,0,0,0,0,0,0,0,0,0,0
0,0,101,2051,-117,600,-32,0,233,0,0,0,0,0,0,0,0,0,0,0
0,0,95,2047,-112,600,-31,2,230,0,0,0,0,0,0,0,0,0,0,0
0,0,100,2050,-104,600,-32,1,245,0,0,0,0,0,0,0,0,0,0,0
0,0,106,2047,-107,599,-32,3,245,0,0,0,0,0,0,0,0,0,0,0
0,0,104,2047,-115,600,-31,2,236,0,0,0,0,0,0,0,0,0,0,0
0,0,94,2046,-124,599,-33,2,213,0,0,0,0,0,0,0,0,0,0,0
0,0,95,2052,-112,602,-33,2,236,0,0,0,0,0,0,0,0,0,0,0
0,0,94,2048,-109,601,-32,1,233,0,0,0,0,0,0,0,0,0,0,0
0,0,99,2040,-112,600,-34,1,223,0,0,0,0,0,0,0,0,0,0,0
0,0,98,2045,-109,600,-32,2,233,0,0,0,0,0,0,0,0,0,0,0
0,0,97,2041,-103,599,-32,2,233,0,0,0,0,0,0,0,0,0,0,0
0,0,98,2039,-116,600,-31,3,222,0,0,0,0,0,0,0,0,0,0,0
0,0,99,2050,-118,601,-33,3,232,0,0,0,0,0,0,0,0,0,0,0
0,0,102,2050,-116,600,-33,2,235,0,0,0,0,0,0,0,0,0,0,0
0,0,96,2050,-117,602,-33,2,230,0,0,0,0,0,0,0,0,0,0,0
0,0,99,2051,-115,601,-32,1,235,0,0,0,0,0,0,0,0,0,0,0
0,0,94,2052,-122,600,-31,2,225,0,0,0,0,0,0,0,0,0,0,0
0,0,106,2055,-109,600,-32,1,251,0,0,0,0,0,0,0,0,0,0,0
0,0,99,2050,-113,600,-32,2,236,0,0,0,0,0,0,0,0,0,0,0
0,0,105,2050,-114,600,-32,3,242,0,0,0,0,0,0,0,0,0,0,0
0,0,101,2049,-109,601,-29,3,246,0,0,0,0,0,0,0,0,0,0,0
0,0,101,2044,-111,599,-31,2,233,0,0,0,0,0,0,0,0,0,0,0
0,0,102,2049,-102,599,-34,1,245,0,0,0,0,0,0,0,0,0,0,0
0,0,101,2048,-120,601,-31,0,229,0,0,0,0,0,0,0,0,0,0,0
0,0,101,2050,-111,599,-33,2,238,0,0,0,0,0,0,0,0,0,0,0
0,0,109,2050,-106,599,-30,2,254,0,0,0,0,0,0,0,0,0,0,0
0,0,94,2047,-114,601,-30,1,228,0,0,0,0,0,0,0,0,0,0,0
0,0,97,2051,-119,601,-33,0,227,0,0,0,0,0,0,0,0,0,0,0
0,0,92,2044,-108,600,-31,1,227,0,0,0,0,0,0,0,0,0,0,0
0,0,99,2054,-105,599,-32,0,245,0,0,0,0,0,0,0,0,0,0,0
0,0,103,2050,-113,600,-32,1,239,0,0,0,0,0,0,0,0,0,0,0
0,0,102,2045,-115,600,-32,-1,227,0,0,0,0,0,0,0,0,0,0,0
0,0,99,2046,-127,600,-33,1,215,0,0,0,0,0,0,0,0,0,0,0
0,0,90,2054,-117,600,-32,2,227,0,0,0,0,0,0,0,0,0,0,0
0,0,100,2051,-111,599,-32,2,239,0,0,0,0,0,0,0,0,0,0,0
0,0,95,2046,-116,599,-31,1,223,0,0,0,0,0,0,0,0,0,0,0
0,0,101,2044,-107,599,-32,1,235,0,0,0,0,0,0,0,0,0,0,0
0,0,103,2049,-115,600,-33,3,237,0,0,0,0,0,0,0,0,0,0,0
0,0,101,2058,-106,600,-31,1,253,0,0,0,0,0,0,0,0,0,0,0
0,0,100,2055,-116,600,-30,1,240,0,0,0,0,0,0,0,0,0,0,0
0,0,96,2044,-115,601,-30,1,226,0,0,0,0,0,0,0,0,0,0,0
0,0,101,2049,-104,600,-30,0,246,0,0,0,0,0,0,0,0,0,0,0
0,0,103,2055,-116,600,-33,1,240,0,0,0,0,0,0,0,0,0,0,0
0,0,94,2050,-118,602,-33,2,227,0,0,0,0,0,0,0,0,0,0,0
0,0,103,2049,-129,600,-31,1,223,0,0,0,0,0,0,0,0,0,0,0
0,0,109,2052,-113,599,-31,3,249,0,0,0,0,0,0,0,0,0,0,0
0,0,102,2051,-119,599,-31,0,232,0,0,0,0,0,0,0,0,0,0,0
0,0,105,2045,-104,600,-31,1,245,0,0,0,0,0,0,0,0,0,0,0
0,0,93,2048,-109,600,-33,2,231,0,0,0,0,0,0,0,0,0,0,0
0,0,95,2051,-118,601,-32,0,227,0,0,0,0,0,0,0,0,0,0,0
0,0,102,2047,-122,600,-32,0,224,0,0,0,0,0,0,0,0,0,0,0
0,0,102,2043,-116,602,-31,0,229,0,0,0,0,0,0,0,0,0,0,0
0,0,106,2050,-115,600,-31,1,241,0,0,0,0,0,0,0,0,0,0,0
0,0,101,2045,-108,600,-32,-1,233,0,0,0,0,0,0,0,0,0,0,0
0,0,98,2043,-116,600,-31,1,224,0,0,0,0,0,0,0,0,0,0,0
0,0,100,2052,-106,599,-32,1,244,0,0,0,0,0,0,0,0,0,0,0
0,0,102,2050,-105,599,-32,1,245,0,0,0,0,0,0,0,0,0,0,0
0,0,105,2048,-115,602,-33,1,238,0,0,0,0,0,0,0,0,0,0,0
0,0,99,2053,-109,600,-31,0,242,0,0,0,0,0,0,0,0,0,0,0
0,0,101,2049,-113,601,-32,1,237,0,0,0,0,0,0,0,0,0,0,0
0,0,96,2043,-102,602,-32,3,239,0,0,0,0,0,0,0,0,0,0,0
0,0,98,2048,-122,601,-34,1,222,0,0,0,0,0,0,0,0,0,0,0
0,0,105,2049,-106,599,-30,1,248,0,0,0,0,0,0,0,0,0,0,0
0,0,101,2045,-109,598,-31,2,235,0,0,0,0,0,0,0,0,0,0,0
0,0,101,2044,-114,599,-33,3,229,0,0,0,0,0,0,0,0,0,0,0
0,0,101,2048,-98,600,-32,0,249,0,0,0,0,0,0,0,0,0,0,0
0,0,102,2046,-107,599,-32,1,238,0,0,0,0,0,0,0,0,0,0,0
0,0,98,2052,-102,599,-33,1,245,0,0,0,0,0,0,0,0,0,0,0
0,0,101,2050,-117,599,-33,1,231,0,0,0,0,0,0,0,0,0,0,0
0,0,102,2049,-118,600,-32,1,232,0,0,0,0,0,0,0,0,0,0,0
0,0,95,2052,-107,600,-33,2,239,0,0,0,0,0,0,0,0,0,0,0
0,0,99,2051,-107,600,-33,1,241,0,0,0,0,0,0,0,0,0,0,0
0,0,101,2042,-102,600,-32,1,239,0,0,0,0,0,0,0,0,0,0,0
0,0,102,2041,-116,600,-32,4,228,0,0,0,0,0,0,0,0,0,0,0
0,0,102,2044,-111,599,-31,1,233,0,0,0,0,0,0,0,0,0,0,0
0,0,100,2047,-101,601,-31,2,247,0,0,0,0,0,0,0,0,0,0,0
0,0,103,2046,-110,599,-32,1,236,0,0,0,0,0,0,0,0,0,0,0
0,0,100,2049,-114,599,-33,1,232,0,0,0,0,0,0,0,0,0,0,0
0,0,101,2054,-112,602,-31,0,244,0,0,0,0,0,0,0,0,0,0,0
0,0,109,2046,-115,600,-32,0,237,0,0,0,0,0,0,0,0,0,0,0
0,0,94,2052,-115,600,-32,1,230,0,0,0,0,0,0,0,0,0,0,0
0,0,103,2046,-102,600,-33,1,244,0,0,0,0,0,0,0,0,0,0,0
0,0,89,2047,-116,599,-29,0,219,0,0,0,0,0,0,0,0,0,0,0
0,0,104,2049,-105,598,-32,-2,241,0,0,0,0,0,0,0,0,0,0,0
0,0,105,2039,-114,599,-32,-3,222,0,0,0,0,0,0,0,0,0,0,0
0,0,102,2045,-118,598,-33,1,224,0,0,0,0,0,0,0,0,0,0,0
0,0,93,2056,-113,599,-33,1,233,0,0,0,0,0,0,0,0,0,0,0
0,0,100,2050,-118,602,-32,2,234,0,0,0,0,0,0,0,0,0,0,0
0,0,95,2047,-109,600,-30,1,233,0,0,0,0,0,0,0,0,0,0,0
0,0,104,2042,-113,600,-34,1,229,0,0,0,0,0,0,0,0,0,0,0
0,0,104,2047,-115,601,-32,1,235,0,0,0,0,0,0,0,0,0,0,0
0,0,98,2044,-111,599,-31,1,229,0,0,0,0,0,0,0,0,0,0,0
0,0,95,2044,-108,599,-31,2,230,0,0,0,0,0,0,0,0,0,0,0
0,0,109,2049,-102,598,-32,3,255,0,0,0,0,0,0,0,0,0,0,0
0,0,101,2048,-112,600,-32,3,238,0,0,0,0,0,0,0,0,0,0,0
0,0,101,2049,-118,600,-31,0,231,0,0,0,0,0,0,0,0,0,0,0
0,0,103,2052,-120,599,-32,1,233,0,0,0,0,0,0,0,0,0,0,0
0,0,102,2050,-117,600,-33,-1,230,0,0,0,0,0,0,0,0,0,0,0
0,0,101,2049,-116,600,-32,1,233,0,0,0,0,0,0,0,0,0,0,0
0,0,109,2051,-119,600,-33,0,238,0,0,0,0,0,0,0,0,0,0,0
0,0,101,2047,-110,600,-32,0,235,0,0,0,0,0,0,0,0,0,0,0
0,0,98,2054,-108,600,-32,2,244,0,0,0,0,0,0,0,0,0,0,0
0,0,98,2050,-106,601,-31,3,245,0,0,0,0,0,0,0,0,0,0,0
0,0,105,2040,-110,601,-30,1,236,0,0,0,0,0,0,0,0,0,0,0
0,0,102,2049,-119,600,-31,2,233,0,0,0,0,0,0,0,0,0,0,0
0,0,103,2050,-117,600,-31,1,236,0,0,0,0,0,0,0,0,0,0,0
0,0,102,2045,-113,599,-33,0,229,0,0,0,0,0,0,0,0,0,0,0
0,0,99,2050,-113,601,-31,2,238,0,0,0,0,0,0,0,0,0,0,0
0,0,102,2049,-116,599,-31,3,236,0,0,0,0,0,0,0,0,0,0,0
0,0,109,2056,-115,599,-33,2,248,0,0,0,0,0,0,0,0,0,0,0
0,0,102,2049,-109,600,-32,0,240,0,0,0,0,0,0,0,0,0,0,0
0,0,99,2050,-109,598,-34,2,236,0,0,0,0,0,0,0,0,0,0,0
0,0,97,2047,-124,602,-31,2,222,0,0,0,0,0,0,0,0,0,0,0
0,0,95,2044,-111,601,-32,1,227,0,0,0,0,0,0,0,0,0,0,0
0,0,100,2049,-111,600,-32,2,238,0,0,0,0,0,0,0,0,0,0,0
0,0,97,2042,-113,599,-30,2,226,0,0,0,0,0,0,0,0,0,0,0
0,0,99,2047,-117,601,-32,2,229,0,0,0,0,0,0,0,0,0,0,0
0,0,102,2044,-119,602,-32,0,226,0,0,0,0,0,0,0,0,0,0,0
0,0,104,2041,-111,601,-33,0,231,0,0,0,0,0,0,0,0,0,0,0
0,0,98,2045,-119,600,-32,1,222,0,0,0,0,0,0,0,0,0,0,0
0,0,98,2043,-108,600,-31,1,232,0,0,0,0,0,0,0,0,0,0,0
0,0,102,2044,-119,600,-31,3,228,0,0,0,0,0,0,0,0,0,0,0
0,0,105,2043,-115,600,-31,1,232,0,0,0,0,0,0,0,0,0,0,0
0,0,102,2053,-108,600,-32,2,247,0,0,0,0,0,0,0,0,0,0,0
0,0,92,2040,-106,599,-31,2,225,0,0,0,0,0,0,0,0,0,0,0
0,0,95,2049,-114,600,-32,-1,226,0,0,0,0,0,0,0,0,0,0,0
0,0,100,2049,-111,601,-32,1,238,0,0,0,0,0,0,0,0,0,0,0
0,0,98,2050,-114,600,-31,2,235,0,0,0,0,0,0,0,0,0,0,0
0,0,107,2038,-108,601,-32,1,236,0,0,0,0,0,0,0,0,0,0,0
0,0,100,2051,-112,601,-32,1,239,0,0,0,0,0,0,0,0,0,0,0
0,0,101,2052,-114,602,-31,1,241,0,0,0,0,0,0,0,0,0,0,0
0,0,93,2047,-113,600,-31,2,227,0,0,0,0,0,0,0,0,0,0,0
0,0,102,2051,-112,598,-34,3,238,0,0,0,0,0,0,0,0,0,0,0
0,0,97,2050,-119,599,-31,1,227,0,0,0,0,0,0,0,0,0,0,0
0,0,99,2048,-112,599,-32,1,233,0,0,0,0,0,0,0,0,0,0,0
0,0,103,2048,-113,600,-31,0,237,0,0,0,0,0,0,0,0,0,0,0
0,0,101,2053,-114,599,-32,1,238,0,0,0,0,0,0,0,0,0,0,0
0,0,103,2042,-116,600,-31,0,227,0,0,0,0,0,0,0,0,0,0,0
0,0,99,2041,-119,599,-32,1,218,0,0,0,0,0,0,0,0,0,0,0
0,0,100,2049,-116,598,-32,1,230,0,0,0,0,0,0,0,0,0,0,0
0,0,101,2051,-106,600,-33,0,243,0,0,0,0,0,0,0,0,0,0,0
0,0,99,2051,-114,601,-32,2,237,0,0,0,0,0,0,0,0,0,0,0
0,0,104,2048,-115,602,-32,1,238,0,0,0,0,0,0,0,0,0,0,0
0,0,105,2052,-112,600,-32,1,244,0,0,0,0,0,0,0,0,0,0,0
0,0,99,2053,-112,600,-33,2,239,0,0,0,0,0,0,0,0,0,0,0
0,0,102,2051,-112,600,-32,1,240,0,0,0,0,0,0,0,0,0,0,0
0,0,105,2051,-113,599,-31,2,243,0,0,0,0,0,0,0,0,0,0,0
0,0,103,2058,-110,599,-30,1,251,0,0,0,0,0,0,0,0,0,0,0
0,0,100,2050,-123,600,-31,0,226,0,0,0,0,0,0,0,0,0,0,0
0,0,108,2045,-109,600,-33,1,241,0,0,0,0,0,0,0,0,0,0,0
0,0,103,2053,-116,601,-33,1,239,0,0,0,0,0,0,0,0,0,0,0
0,0,92,2048,-106,601,-31,0,234,0,0,0,0,0,0,0,0,0,0,0
0,0,98,2050,-105,601,-30,0,244,0,0,0,0,0,0,0,0,0,0,0
0,0,102,2045,-117,600,-30,1,230,0,0,0,0,0,0,0,0,0,0,0
0,0,98,2051,-117,597,-30,2,231,0,0,0,0,0,0,0,0,0,0,0
0,0,106,2039,-125,599,-31,1,218,0,0,0,0,0,0,0,0,0,0,0
0,0,94,2045,-108,599,-32,3,230,0,0,0,0,0,0,0,0,0,0,0
0,0,96,2045,-100,601,-32,1,240,0,0,0,0,0,0,0,0,0,0,0
0,0,103,2053,-103,599,-30,4,0,0,0,0,0,0,0,0,0,0,0,0
0,0,98,2044,-99,600,-33,3,242,0,0,0,0,0,0,0,0,0,0,0
0,0,102,2052,-113,600,-33,1,239,0,0,0,0,0,0,0,0,0,0,0
0,0,96,2051,-107,600,-32,1,239,0,0,0,0,0,0,0,0,0,0,0
0,0,103,2053,-113,601,-33,2,243,0,0,0,0,0,0,0,0,0,0,0
0,0,101,2052,-108,599,-32,0,242,0,0,0,0,0,0,0,0,0,0,0
0,0,96,2053,-113,600,-33,1,234,0,0,0,0,0,0,0,0,0,0,0
0,0,97,2048,-107,599,-32,1,236,0,0,0,0,0,0,0,0,0,0,0
0,0,93,2049,-115,599,-33,2,225,0,0,0,0,0,0,0,0,0,0,0
0,0,98,2053,-111,600,-33,2,239,0,0,0,0,0,0,0,0,0,0,0
0,0,104,2050,-105,599,-32,1,247,0,0,0,0,0,0,0,0,0,0,0
0,0,97,2050,-110,600,-32,0,235,0,0,0,0,0,0,0,0,0,0,0
0,0,103,2052,-112,600,-31,0,242,0,0,0,0,0,0,0,0,0,0,0
0,0,97,2042,-107,600,-31,0,230,0,0,0,0,0,0,0,0,0,0,0
0,0,104,2047,-111,600,-33,1,237,0,0,0,0,0,0,0,0,0,0,0
0,0,100,2047,-113,601,-32,-1,230,0,0,0,0,0,0,0,0,0,0,0
0,0,99,2052,-119,600,-31,2,233,0,0,0,0,0,0,0,0,0,0,0
0,0,104,2042,-104,600,-30,2,243,0,0,0,0,0,0,0,0,0,0,0
0,0,100,2038,-115,600,-32,2,222,0,0,0,0,0,0,0,0,0,0,0
0,0,95,2051,-115,600,-30,1,232,0,0,0,0,0,0,0,0,0,0,0
0,0,98,2051,-116,600,-31,0,232,0,0,0,0,0,0,0,0,0,0,0
0,0,104,2054,-116,602,-31,0,243,0,0,0,0,0,0,0,0,0,0,0
0,0,95,2045,-102,599,-33,0,233,0,0,0,0,0,0,0,0,0,0,0
0,0,95,2051,-110,599,-33,0,232,0,0,0,0,0,0,0,0,0,0,0
0,0,101,2051,-111,598,-32,1,238,0,0,0,0,0,0,0,0,0,0,0
0,0,103,2051,-110,599,-31,1,243,0,0,0,0,0,0,0,0,0,0,0
0,0,107,2052,-110,598,-31,0,246,0,0,0,0,0,0,0,0,0,0,0
0,0,103,2049,-121,600,-33,1,229,0,0,0,0,0,0,0,0,0,0,0
0,0,106,2049,-115,601,-34,2,239,0,0,0,0,0,0,0,0,0,0,0
0,0,93,2045,-100,601,-33,0,235,0,0,0,0,0,0,0,0,0,0,0
0,0,101,2046,-98,600,-32,0,246,0,0,0,0,0,0,0,0,0,0,0
0,0,101,2048,-111,601,-32,2,239,0,0,0,0,0,0,0,0,0,0,0
0,0,98,2051,-103,601,-31,3,249,0,0,0,0,0,0,0,0,0,0,0
0,0,99,2051,-107,602,-32,2,245,0,0,0,0,0,0,0,0,0,0,0
0,0,108,2043,-107,600,-30,1,244,0,0,0,0,0,0,0,0,0,0,0
0,0,105,2048,-113,600,-32,1,239,0,0,0,0,0,0,0,0,0,0,0
0,0,100,2042,-108,599,-33,1,230,0,0,0,0,0,0,0,0,0,0,0
0,0,94,2051,-115,602,-33,0,229,0,0,0,0,0,0,0,0,0,0,0
0,0,98,2051,-123,600,-32,1,225,0,0,0,0,0,0,0,0,0,0,0
0,0,100,2049,-109,600,-34,1,237,0,0,0,0,0,0,0,0,0,0,0
0,0,99,2042,-115,600,-32,1,224,0,0,0,0,0,0,0,0,0,0,0
0,0,103,2051,-112,600,-33,3,242,0,0,0,0,0,0,0,0,0,0,0
0,0,103,2040,-116,601,-31,1,227,0,0,0,0,0,0,0,0,0,0,0
0,0,99,2047,-120,599,-31,1,224,0,0,0,0,0,0,0,0,0,0,0
0,0,109,2050,-108,601,-32,1,251,0,0,0,0,0,0,0,0,0,0,0
0,0,101,2041,-112,601,-31,2,231,0,0,0,0,0,0,0,0,0,0,0
0,0,105,2049,-118,599,-32,0,233,0,0,0,0,0,0,0,0,0,0,0
0,0,100,2051,-127,601,-31,1,225,0,0,0,0,0,0,0,0,0,0,0
0,0,102,2058,-106,601,-33,1,253,0,0,0,0,0,0,0,0,0,0,0
0,0,101,2049,-108,602,-34,1,241,0,0,0,0,0,0,0,0,0,0,0
0,0,104,2042,-110,600,-33,1,233,0,0,0,0,0,0,0,0,0,0,0
0,0,99,2050,-116,600,-33,-1,228,0,0,0,0,0,0,0,0,0,0,0
0,0,92,2042,-104,599,-33,1,226,0,0,0,0,0,0,0,0,0,0,0
0,0,99,2043,-106,600,-30,2,237,0,0,0,0,0,0,0,0,0,0,0
0,0,107,2053,-113,600,-30,2,249,0,0,0,0,0,0,0,0,0,0,0
0,0,110,2053,-121,600,-32,1,241,0,0,0,0,0,0,0,0,0,0,0
0,0,93,2047,-113,600,-32,1,225,0,0,0,0,0,0,0,0,0,0,0
0,0,102,2044,-109,600,-32,2,236,0,0,0,0,0,0,0,0,0,0,0
0,0,93,2050,-106,601,-34,1,235,0,0,0,0,0,0,0,0,0,0,0
0,0,97,2049,-119,601,-30,2,230,0,0,0,0,0,0,0,0,0,0,0
0,0,105,2047,-110,599,-32,0,238,0,0,0,0,0,0,0,0,0,0,0
0,0,102,2047,-111,600,-30,2,239,0,0,0,0,0,0,0,0,0,0,0
0,0,99,2040,-105,599,-32,1,231,0,0,0,0,0,0,0,0,0,0,0
0,0,103,2054,-108,602,-30,-1,249,0,0,0,0,0,0,0,0,0,0,0
0,0,100,2047,-111,600,-30,1,236,0,0,0,0,0,0,0,0,0,0,0
0,0,98,2050,-112,601,-32,2,237,0,0,0,0,0,0,0,0,0,0,0
0,0,102,2055,-114,600,-32,1,242,0,0,0,0,0,0,0,0,0,0,0
0,0,104,2051,-110,601,-33,2,245,0,0,0,0,0,0,0,0,0,0,0
0,0,101,2051,-127,600,-33,0,222,0,0,0,0,0,0,0,0,0,0,0
0,0,105,2050,-120,603,-33,1,236,0,0,0,0,0,0,0,0,0,0,0
0,0,104,2050,-112,598,-33,1,238,0,0,0,0,0,0,0,0,0,0,0
0,0,105,2050,-113,599,-33,1,239,0,0,0,0,0,0,0,0,0,0,0
0,0,103,2052,-116,601,-32,3,241,0,0,0,0,0,0,0,0,0,0,0
0,0,97,2048,-106,601,-32,1,239,0,0,0,0,0,0,0,0,0,0,0
0,0,104,2052,-104,600,-32,2,252,0,0,0,0,0,0,0,0,0,0,0
0,0,106,2056,-106,600,-32,2,0,0,0,0,0,0,0,0,0,0,0,0
0,0,101,2044,-117,601,-31,0,227,0,0,0,0,0,0,0,0,0,0,0
0,0,101,2056,-110,600,-32,1,246,0,0,0,0,0,0,0,0,0,0,0
0,0,98,2041,-102,601,-30,3,240,0,0,0,0,0,0,0,0,0,0,0
0,0,96,2044,-115,603,-31,2,228,0,0,0,0,0,0,0,0,0,0,0
0,0,99,2042,-120,599,-33,2,218,0,0,0,0,0,0,0,0,0,0,0
0,0,92,2046,-119,601,-32,4,221,0,0,0,0,0,0,0,0,0,0,0
0,0,96,2049,-119,601,-32,3,228,0,0,0,0,0,0,0,0,0,0,0
0,0,105,2050,-117,601,-32,3,240,0,0,0,0,0,0,0,0,0,0,0
0,0,97,2051,-111,600,-32,2,237,0,0,0,0,0,0,0,0,0,0,0
0,0,94,2043,-105,601,-31,2,233,0,0,0,0,0,0,0,0,0,0,0
0,0,101,2053,-111,601,-32,2,244,0,0,0,0,0,0,0,0,0,0,0
0,0,100,2053,-114,600,-31,2,240,0,0,0,0,0,0,0,0,0,0,0
0,0,103,2054,-105,602,-31,0,253,0,0,0,0,0,0,0,0,0,0,0
0,0,100,2052,-91,602,-32,2,7,0,0,0,0,0,0,0,0,0,0,0
0,0,94,2049,-106,599,-32,3,237,0,0,0,0,0,0,0,0,0,0,0
0,0,105,2052,-110,601,-32,1,247,0,0,0,0,0,0,0,0,0,0,0
0,0,98,2050,-114,599,-31,1,233,0,0,0,0,0,0,0,0,0,0,0
0,0,105,2056,-116,599,-32,2,244,0,0,0,0,0,0,0,0,0,0,0
0,0,101,2050,-121,599,-32,2,229,0,0,0,0,0,0,0,0,0,0,0
0,0,96,2046,-108,601,-32,2,234,0,0,0,0,0,0,0,0,0,0,0
0,0,98,2041,-116,601,-31,1,223,0,0,0,0,0,0,0,0,0,0,0
0,0,106,2047,-121,600,-31,2,232,0,0,0,0,0,0,0,0,0,0,0
0,0,101,2041,-120,600,-31,0,220,0,0,0,0,0,0,0,0,0,0,0
0,0,103,2039,-118,600,-33,2,222,0,0,0,0,0,0,0,0,0,0,0
0,0,103,2050,-118,601,-29,0,237,0,0,0,0,0,0,0,0,0,0,0
0,0,102,2041,-107,600,-33,0,232,0,0,0,0,0,0,0,0,0,0,0
0,0,100,2056,-113,601,-31,0,243,0,0,0,0,0,0,0,0,0,0,0
0,0,103,2041,-105,599,-30,2,239,0,0,0,0,0,0,0,0,0,0,0
0,0,100,2048,-103,601,-32,1,245,0,0,0,0,0,0,0,0,0,0,0
0,0,101,2051,-111,602,-32,1,242,0,0,0,0,0,0,0,0,0,0,0
0,0,106,2050,-119,600,-32,3,238,0,0,0,0,0,0,0,0,0,0,0
0,0,97,2053,-112,601,-34,2,237,0,0,0,0,0,0,0,0,0,0,0
0,0,106,2054,-102,600,-33,1,0,0,0,0,0,0,0,0,0,0,0,0
0,0,106,2051,-116,600,-33,1,239,0,0,0,0,0,0,0,0,0,0,0
0,0,105,2042,-117,598,-32,0,225,0,0,0,0,0,0,0,0,0,0,0
0,0,102,2053,-109,600,-32,1,245,0,0,0,0,0,0,0,0,0,0,0
0,0,104,2055,-107,600,-32,1,251,0,0,0,0,0,0,0,0,0,0,0
0,0,98,2045,-107,600,-31,3,237,0,0,0,0,0,0,0,0,0,0,0
0,0,99,2047,-112,599,-33,1,230,0,0,0,0,0,0,0,0,0,0,0
0,0,98,2051,-105,599,-31,1,243,0,0,0,0,0,0,0,0,0,0,0
0,0,101,2044,-111,599,-33,0,229,0,0,0,0,0,0,0,0,0,0,0
0,0,99,2042,-110,600,-30,0,230,0,0,0,0,0,0,0,0,0,0,0
0,0,93,2055,-119,598,-31,2,228,0,0,0,0,0,0,0,0,0,0,0
0,0,99,2043,-119,600,-31,2,223,0,0,0,0,0,0,0,0,0,0,0
0,0,97,2045,-116,601,-32,1,225,0,0,0,0,0,0,0,0,0,0,0
0,0,100,2054,-112,600,-32,1,241,0,0,0,0,0,0,0,0,0,0,0
0,0,101,2052,-110,600,-32,0,241,0,0,0,0,0,0,0,0,0,0,0
0,0,91,2050,-114,601,-30,1,229,0,0,0,0,0,0,0,0,0,0,0
0,0,104,2045,-115,599,-31,-1,229,0,0,0,0,0,0,0,0,0,0,0
0,0,102,2050,-121,600,-31,3,233,0,0,0,0,0,0,0,0,0,0,0
0,0,102,2046,-107,600,-32,2,240,0,0,0,0,0,0,0,0,0,0,0
0,0,98,2052,-116,600,-32,1,233,0,0,0,0,0,0,0,0,0,0,0
0,0,104,2048,-113,601,-31,1,240,0,0,0,0,0,0,0,0,0,0,0
0,0,108,2052,-107,600,-31,0,252,0,0,0,0,0,0,0,0,0,0,0
0,0,106,2041,-115,599,-30,3,233,0,0,0,0,0,0,0,0,0,0,0
0,0,104,2048,-118,600,-30,0,234,0,0,0,0,0,0,0,0,0,0,0
0,0,100,2046,-117,599,-31,0,226,0,0,0,0,0,0,0,0,0,0,0
0,0,106,2057,-122,600,-34,1,238,0,0,0,0,0,0,0,0,0,0,0
0,0,104,2048,-125,600,-33,1,225,0,0,0,0,0,0,0,0,0,0,0
0,0,101,2054,-115,600,-31,-1,237,0,0,0,0,0,0,0,0,0,0,0
0,0,99,2051,-104,601,-31,1,247,0,0,0,0,0,0,0,0,0,0,0
0,0,101,2041,-120,600,-33,2,220,0,0,0,0,0,0,0,0,0,0,0
0,0,96,2043,-113,600,-33,1,223,0,0,0,0,0,0,0,0,0,0,0
0,0,102,2048,-113,601,-32,3,239,0,0,0,0,0,0,0,0,0,0,0
0,0,96,2050,-107,599,-31,2,239,0,0,0,0,0,0,0,0,0,0,0
0,0,102,2046,-113,600,-32,2,234,0,0,0,0,0,0,0,0,0,0,0
0,0,104,2054,-111,601,-31,0,247,0,0,0,0,0,0,0,0,0,0,0
0,0,99,2043,-124,600,-33,0,214,0,0,0,0,0,0,0,0,0,0,0
0,0,99,2048,-117,600,-33,1,228,0,0,0,0,0,0,0,0,0,0,0
0,0,107,2054,-102,600,-33,-1,254,0,0,0,0,0,0,0,0,0,0,0
0,0,105,2049,-103,599,-32,0,248,0,0,0,0,0,0,0,0,0,0,0
0,0,103,2045,-117,598,-33,2,227,0,0,0,0,0,0,0,0,0,0,0
0,0,97,2054,-111,600,-31,3,242,0,0,0,0,0,0,0,0,0,0,0
0,0,99,2049,-112,601,-31,2,238,0,0,0,0,0,0,0,0,0,0,0
0,0,94,2057,-119,600,-31,1,232,0,0,0,0,0,0,0,0,0,0,0
0,0,98,2051,-125,600,-33,1,222,0,0,0,0,0,0,0,0,0,0,0
0,0,103,2044,-116,601,-33,2,230,0,0,0,0,0,0,0,0,0,0,0
0,0,97,2043,-118,601,-32,1,221,0,0,0,0,0,0,0,0,0,0,0
0,0,100,2048,-111,600,-34,2,235,0,0,0,0,0,0,0,0,0,0,0
0,0,100,2046,-110,600,-32,1,234,0,0,0,0,0,0,0,0,0,0,0
0,0,101,2046,-114,600,-31,2,233,0,0,0,0,0,0,0,0,0,0,0
0,0,106,2054,-118,600,-31,0,241,0,0,0,0,0,0,0,0,0,0,0
0,0,102,2051,-126,600,-32,0,225,0,0,0,0,0,0,0,0,0,0,0
0,0,96,2046,-114,599,-32,1,225,0,0,0,0,0,0,0,0,0,0,0
0,0,107,2049,-105,600,-32,1,250,0,0,0,0,0,0,0,0,0,0,0
0,0,94,2047,-114,601,-32,1,226,0,0,0,0,0,0,0,0,0,0,0
0,0,98,2054,-107,600,-33,0,242,0,0,0,0,0,0,0,0,0,0,0
0,0,98,2053,-111,599,-33,2,238,0,0,0,0,0,0,0,0,0,0,0
0,0,113,2053,-113,599,-32,2,252,0,0,0,0,0,0,0,0,0,0,0
0,0,111,2045,-108,601,-32,1,247,0,0,0,0,0,0,0,0,0,0,0
0,0,100,2056,-118,602,-31,1,240,0,0,0,0,0,0,0,0,0,0,0
0,0,104,2050,-110,601,-33,2,244,0,0,0,0,0,0,0,0,0,0,0
0,0,102,2043,-109,602,-32,1,236,0,0,0,0,0,0,0,0,0,0,0
0,0,105,2044,-111,598,-31,2,236,0,0,0,0,0,0,0,0,0,0,0
0,0,97,2045,-114,601,-32,1,227,0,0,0,0,0,0,0,0,0,0,0
0,0,104,2041,-112,602,-32,2,234,0,0,0,0,0,0,0,0,0,0,0
0,0,95,2044,-112,602,-31,2,229,0,0,0,0,0,0,0,0,0,0,0
0,0,100,2048,-119,599,-31,0,227,0,0,0,0,0,0,0,0,0,0,0
0,0,95,2050,-116,598,-33,2,226,0,0,0,0,0,0,0,0,0,0,0
0,0,100,2047,-108,601,-33,3,239,0,0,0,0,0,0,0,0,0,0,0
0,0,100,2045,-95,600,-31,3,251,0,0,0,0,0,0,0,0,0,0,0
0,0,102,2043,-110,599,-31,0,232,0,0,0,0,0,0,0,0,0,0,0
0,0,108,2044,-104,599,-31,2,247,0,0,0,0,0,0,0,0,0,0,0
0,0,99,2049,-105,599,-31,3,244,0,0,0,0,0,0,0,0,0,0,0
0,0,99,2051,-113,598,-32,2,235,0,0,0,0,0,0,0,0,0,0,0
0,0,95,2056,-110,600,-31,0,240,0,0,0,0,0,0,0,0,0,0,0
0,0,94,2047,-105,598,-31,3,235,0,0,0,0,0,0,0,0,0,0,0
0,0,99,2047,-119,599,-33,3,225,0,0,0,0,0,0,0,0,0,0,0
0,0,103,2046,-113,598,-33,1,231,0,0,0,0,0,0,0,0,0,0,0
0,0,97,2045,-108,600,-33,1,231,0,0,0,0,0,0,0,0,0,0,0
0,0,100,2051,-115,599,-33,2,234,0,0,0,0,0,0,0,0,0,0,0
0,0,109,2048,-120,601,-30,3,241,0,0,0,0,0,0,0,0,0,0,0
0,0,104,2049,-116,601,-31,-1,235,0,0,0,0,0,0,0,0,0,0,0
0,0,105,2055,-111,601,-31,2,251,0,0,0,0,0,0,0,0,0,0,0
0,0,98,2054,-110,598,-32,1,239,0,0,0,0,0,0,0,0,0,0,0
0,0,104,2050,-126,600,-31,0,227,0,0,0,0,0,0,0,0,0,0,0
0,0,97,2049,-111,600,-31,0,234,0,0,0,0,0,0,0,0,0,0,0
0,0,108,2053,-113,601,-32,1,248,0,0,0,0,0,0,0,0,0,0,0
0,0,99,2046,-112,598,-33,0,227,0,0,0,0,0,0,0,0,0,0,0
0,0,97,2045,-115,600,-32,2,226,0,0,0,0,0,0,0,0,0,0,0
0,0,103,2048,-111,598,-31,1,238,0,0,0,0,0,0,0,0,0,0,0
0,0,105,2054,-107,597,-33,2,248,0,0,0,0,0,0,0,0,0,0,0
0,0,108,2043,-117,601,-32,1,233,0,0,0,0,0,0,0,0,0,0,0
0,0,107,2044,-113,600,-32,2,237,0,0,0,0,0,0,0,0,0,0,0
0,0,106,2046,-120,600,-31,-1,228,0,0,0,0,0,0,0,0,0,0,0
0,0,100,2051,-114,600,-32,2,237,0,0,0,0,0,0,0,0,0,0,0
0,0,106,2041,-114,601,-33,2,232,0,0,0,0,0,0,0,0,0,0,0
0,0,99,2047,-110,601,-31,0,235,0,0,0,0,0,0,0,0,0,0,0
0,0,102,2046,-111,601,-32,2,237,0,0,0,0,0,0,0,0,0,0,0
0,0,99,2050,-104,602,-32,0,245,0,0,0,0,0,0,0,0,0,0,0
0,0,96,2054,-114,600,-32,1,235,0,0,0,0,0,0,0,0,0,0,0
0,0,105,2047,-118,600,-30,2,235,0,0,0,0,0,0,0,0,0,0,0
0,0,103,2050,-110,600,-32,1,242,0,0,0,0,0,0,0,0,0,0,0
0,0,98,2052,-114,601,-31,1,237,0,0,0,0,0,0,0,0,0,0,0
0,0,100,2055,-111,600,-30,2,246,0,0,0,0,0,0,0,0,0,0,0
0,0,100,2051,-114,601,-32,2,238,0,0,0,0,0,0,0,0,0,0,0
0,0,96,2045,-109,601,-32,3,233,0,0,0,0,0,0,0,0,0,0,0
0,0,101,2049,-111,601,-31,2,241,0,0,0,0,0,0,0,0,0,0,0
0,0,101,2053,-107,601,-33,2,247,0,0,0,0,0,0,0,0,0,0,0
0,0,105,2044,-110,600,-32,1,237,0,0,0,0,0,0,0,0,0,0,0
0,0,98,2047,-108,600,-33,1,234,0,0,0,0,0,0,0,0,0,0,0
0,0,103,2046,-111,599,-30,2,238,0,0,0,0,0,0,0,0,0,0,0
0,0,101,2045,-120,599,-33,2,223,0,0,0,0,0,0,0,0,0,0,0
0,0,97,2045,-117,601,-32,2,225,0,0,0,0,0,0,0,0,0,0,0
0,0,105,2043,-110,599,-31,0,235,0,0,0,0,0,0,0,0,0,0,0
0,0,103,2049,-110,599,-31,1,241,0,0,0,0,0,0,0,0,0,0,0
0,0,102,2045,-111,600,-33,2,234,0,0,0,0,0,0,0,0,0,0,0
0,0,105,2046,-114,600,-32,3,237,0,0,0,0,0,0,0,0,0,0,0
0,0,99,2048,-122,599,-30,1,225,0,0,0,0,0,0,0,0,0,0,0
0,0,92,2042,-118,599,-31,1,214,0,0,0,0,0,0,0,0,0,0,0
0,0,101,2038,-107,600,-33,1,229,0,0,0,0,0,0,0,0,0,0,0
0,0,100,2046,-113,600,-33,2,231,0,0,0,0,0,0,0,0,0,0,0
0,0,95,2057,-106,598,-31,2,245,0,0,0,0,0,0,0,0,0,0,0
0,0,101,2049,-115,600,-31,1,235,0,0,0,0,0,0,0,0,0,0,0
0,0,108,2047,-118,600,-29,2,239,0,0,0,0,0,0,0,0,0,0,0
0,0,107,2044,-117,601,-30,1,235,0,0,0,0,0,0,0,0,0,0,0
0,0,105,2052,-118,600,-31,1,239,0,0,0,0,0,0,0,0,0,0,0
0,0,94,2049,-113,602,-32,3,233,0,0,0,0,0,0,0,0,0,0,0
0,0,105,2053,-117,601,-30,1,243,0,0,0,0,0,0,0,0,0,0,0
0,0,112,2046,-115,600,-31,2,243,0,0,0,0,0,0,0,0,0,0,0
0,0,102,2046,-114,599,-32,3,233,0,0,0,0,0,0,0,0,0,0,0
0,0,99,2045,-115,602,-31,0,229,0,0,0,0,0,0,0,0,0,0,0
0,0,101,2047,-115,599,-32,2,231,0,0,0,0,0,0,0,0,0,0,0
0,0,104,2034,-111,599,-33,1,223,0,0,0,0,0,0,0,0,0,0,0
0,0,99,2046,-112,600,-34,2,230,0,0,0,0,0,0,0,0,0,0,0
0,0,98,2045,-109,600,-33,2,232,0,0,0,0,0,0,0,0,0,0,0
0,0,101,2042,-123,599,-32,2,218,0,0,0,0,0,0,0,0,0,0,0
0,0,102,2046,-109,600,-31,0,237,0,0,0,0,0,0,0,0,0,0,0
0,0,94,2043,-114,601,-33,2,222,0,0,0,0,0,0,0,0,0,0,0
0,0,102,2042,-104,600,-31,1,239,0,0,0,0,0,0,0,0,0,0,0
0,0,101,2055,-121,600,-33,1,233,0,0,0,0,0,0,0,0,0,0,0
0,0,100,2043,-113,599,-32,0,226,0,0,0,0,0,0,0,0,0,0,0
0,0,91,2057,-115,601,-33,2,233,0,0,0,0,0,0,0,0,0,0,0
0,0,96,2047,-110,601,-33,1,231,0,0,0,0,0,0,0,0,0,0,0
0,0,101,2048,-111,600,-32,3,239,0,0,0,0,0,0,0,0,0,0,0
0,0,98,2047,-123,601,-33,1,220,0,0,0,0,0,0,0,0,0,0,0
0,0,99,2047,-111,600,-32,1,233,0,0,0,0,0,0,0,0,0,0,0
0,0,101,2052,-100,600,-33,1,251,0,0,0,0,0,0,0,0,0,0,0
0,0,100,2048,-106,601,-31,1,243,0,0,0,0,0,0,0,0,0,0,0
0,0,100,2043,-113,600,-30,1,230,0,0,0,0,0,0,0,0,0,0,0
0,0,101,2051,-119,603,-31,1,236,0,0,0,0,0,0,0,0,0,0,0
0,0,106,2051,-101,600,-32,2,0,0,0,0,0,0,0,0,0,0,0,0
0,0,99,2046,-113,600,-32,3,232,0,0,0,0,0,0,0,0,0,0,0
0,0,102,2051,-108,600,-31,1,245,0,0,0,0,0,0,0,0,0,0,0
0,0,104,2049,-114,601,-32,0,238,0,0,0,0,0,0,0,0,0,0,0
0,0,100,2051,-115,600,-31,0,235,0,0,0,0,0,0,0,0,0,0,0
0,0,93,2053,-114,601,-30,2,235,0,0,0,0,0,0,0,0,0,0,0
0,0,98,2043,-114,599,-31,2,226,0,0,0,0,0,0,0,0,0,0,0
0,0,106,2051,-104,600,-31,1,253,0,0,0,0,0,0,0,0,0,0,0
0,0,99,2051,-106,599,-30,0,243,0,0,0,0,0,0,0,0,0,0,0
0,0,92,2038,-106,599,-32,2,222,0,0,0,0,0,0,0,0,0,0,0
0,0,98,2047,-112,602,-32,1,233,0,0,0,0,0,0,0,0,0,0,0
0,0,102,2042,-106,601,-31,1,238,0,0,0,0,0,0,0,0,0,0,0
0,0,105,2047,-114,600,-33,2,236,0,0,0,0,0,0,0,0,0,0,0
0,0,99,2046,-124,600,-30,0,220,0,0,0,0,0,0,0,0,0,0,0
0,0,94,2049,-120,599,-30,0,222,0,0,0,0,0,0,0,0,0,0,0
0,0,98,2045,-114,599,-32,0,225,0,0,0,0,0,0,0,0,0,0,0
0,0,95,2053,-118,601,-33,1,229,0,0,0,0,0,0,0,0,0,0,0
0,0,93,2045,-110,600,-33,2,226,0,0,0,0,0,0,0,0,0,0,0
0,0,101,2049,-110,600,-31,0,239,0,0,0,0,0,0,0,0,0,0,0
0,0,102,2044,-121,600,-32,1,223,0,0,0,0,0,0,0,0,0,0,0
0,0,98,2049,-103,600,-33,1,242,0,0,0,0,0,0,0,0,0,0,0
0,0,97,2045,-110,599,-32,2,230,0,0,0,0,0,0,0,0,0,0,0
0,0,100,2056,-108,599,-34,2,245,0,0,0,0,0,0,0,0,0,0,0
0,0,96,2050,-116,601,-32,2,231,0,0,0,0,0,0,0,0,0,0,0
0,0,99,2052,-121,599,-32,1,228,0,0,0,0,0,0,0,0,0,0,0
0,0,100,2050,-110,601,-31,2,242,0,0,0,0,0,0,0,0,0,0,0
0,0,98,2040,-111,599,-31,3,227,0,0,0,0,0,0,0,0,0,0,0
0,0,101,2049,-114,601,-33,0,234,0,0,0,0,0,0,0,0,0,0,0
0,0,102,2048,-104,599,-32,1,244,0,0,0,0,0,0,0,0,0,0,0
0,0,104,2045,-107,601,-31,1,242,0,0,0,0,0,0,0,0,0,0,0
0,0,97,2044,-113,601,-30,2,230,0,0,0,0,0,0,0,0,0,0,0
0,0,98,2050,-111,599,-32,2,236,0,0,0,0,0,0,0,0,0,0,0
0,0,106,2050,-113,599,-31,2,243,0,0,0,0,0,0,0,0,0,0,0
0,0,97,2040,-112,599,-32,2,223,0,0,0,0,0,0,0,0,0,0,0
0,0,99,2044,-117,599,-32,3,225,0,0,0,0,0,0,0,0,0,0,0
0,0,97,2044,-110,602,-31,1,232,0,0,0,0,0,0,0,0,0,0,0
0,0,103,2055,-108,599,-32,0,247,0,0,0,0,0,0,0,0,0,0,0
0,0,92,2042,-114,601,-32,0,218,0,0,0,0,0,0,0,0,0,0,0
0,0,105,2045,-115,600,-34,1,231,0,0,0,0,0,0,0,0,0,0,0
0,0,102,2052,-108,600,-31,3,248,0,0,0,0,0,0,0,0,0,0,0
0,0,95,2047,-100,598,-31,1,239,0,0,0,0,0,0,0,0,0,0,0
0,0,105,2051,-115,600,-30,1,242,0,0,0,0,0,0,0,0,0,0,0
0,0,103,2041,-115,602,-31,1,230,0,0,0,0,0,0,0,0,0,0,0
0,0,106,2046,-113,601,-33,1,237,0,0,0,0,0,0,0,0,0,0,0
0,0,95,2049,-106,601,-33,2,238,0,0,0,0,0,0,0,0,0,0,0
0,0,105,2053,-103,600,-32,0,253,0,0,0,0,0,0,0,0,0,0,0
0,0,104,2045,-113,601,-33,2,235,0,0,0,0,0,0,0,0,0,0,0
0,0,104,2043,-117,601,-31,2,231,0,0,0,0,0,0,0,0,0,0,0
0,0,96,2043,-113,601,-32,0,224,0,0,0,0,0,0,0,0,0,0,0
0,0,93,2047,-115,600,-32,2,224,0,0,0,0,0,0,0,0,0,0,0
0,0,107,2045,-110,600,-31,3,243,0,0,0,0,0,0,0,0,0,0,0
0,0,102,2046,-111,600,-32,1,235,0,0,0,0,0,0,0,0,0,0,0
0,0,98,2052,-109,600,-31,0,240,0,0,0,0,0,0,0,0,0,0,0
0,0,103,2053,-118,600,-31,1,238,0,0,0,0,0,0,0,0,0,0,0
0,0,105,2048,-115,601,-31,0,238,0,0,0,0,0,0,0,0,0,0,0
0,0,110,2050,-121,601,-32,2,240,0,0,0,0,0,0,0,0,0,0,0
0,0,101,2056,-120,599,-32,2,236,0,0,0,0,0,0,0,0,0,0,0
0,0,102,2044,-109,601,-33,1,235,0,0,0,0,0,0,0,0,0,0,0
0,0,102,2054,-103,600,-31,2,254,0,0,0,0,0,0,0,0,0,0,0
0,0,101,2046,-112,600,-31,1,234,0,0,0,0,0,0,0,0,0,0,0
0,0,100,2046,-109,600,-31,1,236,0,0,0,0,0,0,0,0,0,0,0
0,0,95,2048,-116,599,-32,2,226,0,0,0,0,0,0,0,0,0,0,0
0,0,101,2044,-115,599,-33,1,226,0,0,0,0,0,0,0,0,0,0,0
0,0,100,2044,-113,600,-34,2,228,0,0,0,0,0,0,0,0,0,0,0
0,0,108,2044,-113,599,-31,0,236,0,0,0,0,0,0,0,0,0,0,0
0,0,98,2047,-118,598,-32,2,224,0,0,0,0,0,0,0,0,0,0,0
0,0,107,2050,-115,601,-32,0,241,0,0,0,0,0,0,0,0,0,0,0
0,0,105,2047,-119,599,-30,3,234,0,0,0,0,0,0,0,0,0,0,0
0,0,102,2039,-115,600,-32,1,224,0,0,0,0,0,0,0,0,0,0,0
0,0,100,2047,-113,601,-33,1,232,0,0,0,0,0,0,0,0,0,0,0
0,0,111,2044,-100,601,-33,0,252,0,0,0,0,0,0,0,0,0,0,0
0,0,99,2060,-104,600,-33,2,254,0,0,0,0,0,0,0,0,0,0,0
0,0,103,2041,-114,601,-32,2,230,0,0,0,0,0,0,0,0,0,0,0
0,0,102,2050,-104,600,-30,1,249,0,0,0,0,0,0,0,0,0,0,0
0,0,107,2054,-108,601,-31,2,255,0,0,0,0,0,0,0,0,0,0,0
0,0,93,2054,-103,599,-33,0,240,0,0,0,0,0,0,0,0,0,0,0
0,0,102,2056,-113,601,-32,2,246,0,0,0,0,0,0,0,0,0,0,0
0,0,101,2043,-108,601,-31,1,236,0,0,0,0,0,0,0,0,0,0,0
0,0,107,2046,-115,600,-33,1,235,0,0,0,0,0,0,0,0,0,0,0
0,0,101,2053,-111,599,-31,1,242,0,0,0,0,0,0,0,0,0,0,0
0,0,101,2058,-116,601,-31,0,243,0,0,0,0,0,0,0,0,0,0,0
0,0,99,2051,-116,599,-32,2,233,0,0,0,0,0,0,0,0,0,0,0
0,0,105,2048,-100,600,-31,2,254,0,0,0,0,0,0,0,0,0,0,0
0,0,101,2045,-106,598,-30,0,237,0,0,0,0,0,0,0,0,0,0,0
0,0,108,2056,-120,600,-32,1,243,0,0,0,0,0,0,0,0,0,0,0
0,0,100,2052,-119,599,-33,1,230,0,0,0,0,0,0,0,0,0,0,0
0,0,108,2046,-117,598,-31,2,235,0,0,0,0,0,0,0,0,0,0,0
0,0,107,2056,-112,600,-30,1,252,0,0,0,0,0,0,0,0,0,0,0
0,0,95,2054,-114,601,-33,0,233,0,0,0,0,0,0,0,0,0,0,0
0,0,97,2046,-119,600,-31,1,223,0,0,0,0,0,0,0,0,0,0,0
0,0,95,2045,-109,598,-32,3,229,0,0,0,0,0,0,0,0,0,0,0
0,0,97,2044,-99,600,-33,0,238,0,0,0,0,0,0,0,0,0,0,0
0,0,95,2045,-115,599,-33,1,221,0,0,0,0,0,0,0,0,0,0,0
0,0,99,2053,-112,600,-31,3,242,0,0,0,0,0,0,0,0,0,0,0
0,0,107,2054,-115,600,-32,1,245,0,0,0,0,0,0,0,0,0,0,0
0,0,104,2049,-116,599,-32,1,235,0,0,0,0,0,0,0,0,0,0,0
0,0,100,2044,-106,598,-31,1,235,0,0,0,0,0,0,0,0,0,0,0
0,0,100,2056,-120,601,-32,1,236,0,0,0,0,0,0,0,0,0,0,0
0,0,96,2049,-100,601,-32,2,246,0,0,0,0,0,0,0,0,0,0,0
0,0,104,2050,-108,598,-30,2,246,0,0,0,0,0,0,0,0,0,0,0
0,0,96,2046,-112,600,-30,2,231,0,0,0,0,0,0,0,0,0,0,0
0,0,97,2042,-113,600,-31,2,226,0,0,0,0,0,0,0,0,0,0,0
0,0,102,2043,-98,601,-32,2,247,0,0,0,0,0,0,0,0,0,0,0
0,0,99,2054,-109,601,-32,2,245,0,0,0,0,0,0,0,0,0,0,0
0,0,98,2049,-116,600,-32,3,232,0,0,0,0,0,0,0,0,0,0,0
0,0,97,2050,-115,599,-31,1,231,0,0,0,0,0,0,0,0,0,0,0
0,0,93,2038,-99,600,-30,2,233,0,0,0,0,0,0,0,0,0,0,0
0,0,100,2047,-113,600,-32,0,231,0,0,0,0,0,0,0,0,0,0,0
0,0,95,2049,-101,601,-31,2,245,0,0,0,0,0,0,0,0,0,0,0
0,0,90,2053,-115,601,-30,0,229,0,0,0,0,0,0,0,0,0,0,0
0,0,103,2040,-132,601,-31,2,212,0,0,0,0,0,0,0,0,0,0,0
0,0,94,2044,-120,599,-33,3,216,0,0,0,0,0,0,0,0,0,0,0
0,0,101,2049,-109,600,-31,3,243,0,0,0,0,0,0,0,0,0,0,0
0,0,96,2046,-108,600,-33,2,232,0,0,0,0,0,0,0,0,0,0,0
0,0,96,2063,-108,601,-32,2,252,0,0,0,0,0,0,0,0,0,0,0
0,0,99,2060,-118,600,-33,2,240,0,0,0,0,0,0,0,0,0,0,0
0,0,102,2051,-118,601,-34,3,235,0,0,0,0,0,0,0,0,0,0,0
0,0,102,2042,-109,600,-32,2,234,0,0,0,0,0,0,0,0,0,0,0
0,0,102,2047,-119,598,-31,3,229,0,0,0,0,0,0,0,0,0,0,0
0,0,99,2046,-110,601,-31,2,236,0,0,0,0,0,0,0,0,0,0,0
0,0,105,2055,-100,600,-32,3,5,0,0,0,0,0,0,0,0,0,0,0
0,0,102,2046,-112,601,-31,2,237,0,0,0,0,0,0,0,0,0,0,0
0,0,97,2048,-113,599,-33,2,230,0,0,0,0,0,0,0,0,0,0,0
0,0,97,2048,-107,601,-32,3,240,0,0,0,0,0,0,0,0,0,0,0
0,0,97,2040,-100,600,-32,0,234,0,0,0,0,0,0,0,0,0,0,0
0,0,103,2047,-113,600,-32,2,236,0,0,0,0,0,0,0,0,0,0,0
0,0,105,2047,-111,598,-31,0,237,0,0,0,0,0,0,0,0,0,0,0
0,0,100,2046,-114,599,-31,1,230,0,0,0,0,0,0,0,0,0,0,0
0,0,106,2048,-108,601,-30,2,249,0,0,0,0,0,0,0,0,0,0,0
0,0,102,2047,-109,599,-31,2,239,0,0,0,0,0,0,0,0,0,0,0
0,0,99,2044,-108,601,-31,2,236,0,0,0,0,0,0,0,0,0,0,0
0,0,100,2045,-111,601,-32,1,233,0,0,0,0,0,0,0,0,0,0,0
0,0,100,2042,-119,599,-33,1,219,0,0,0,0,0,0,0,0,0,0,0
0,0,98,2044,-97,599,-33,2,242,0,0,0,0,0,0,0,0,0,0,0
0,0,93,2050,-115,601,-32,2,229,0,0,0,0,0,0,0,0,0,0,0
0,0,111,2051,-113,600,-32,2,249,0,0,0,0,0,0,0,0,0,0,0
0,0,105,2055,-109,600,-33,2,250,0,0,0,0,0,0,0,0,0,0,0
0,0,99,2049,-117,601,-32,1,231,0,0,0,0,0,0,0,0,0,0,0
0,0,97,2054,-111,601,-33,0,238,0,0,0,0,0,0,0,0,0,0,0
0,0,98,2053,-106,601,-30,2,248,0,0,0,0,0,0,0,0,0,0,0
0,0,102,2052,-112,600,-33,0,239,0,0,0,0,0,0,0,0,0,0,0
0,0,96,2041,-109,599,-31,1,226,0,0,0,0,0,0,0,0,0,0,0
0,0,105,2047,-111,600,-31,0,239,0,0,0,0,0,0,0,0,0,0,0
0,0,101,2049,-111,600,-32,1,238,0,0,0,0,0,0,0,0,0,0,0
0,0,102,2055,-116,599,-32,3,241,0,0,0,0,0,0,0,0,0,0,0
0,0,104,2049,-127,599,-30,1,226,0,0,0,0,0,0,0,0,0,0,0
0,0,96,2045,-112,598,-31,2,227,0,0,0,0,0,0,0,0,0,0,0
0,0,98,2049,-117,598,-32,2,228,0,0,0,0,0,0,0,0,0,0,0
0,0,101,2048,-110,598,-32,-1,233,0,0,0,0,0,0,0,0,0,0,0
0,0,98,2045,-108,600,-33,1,232,0,0,0,0,0,0,0,0,0,0,0
0,0,99,2043,-102,601,-32,2,240,0,0,0,0,0,0,0,0,0,0,0
0,0,100,2048,-114,599,-31,2,234,0,0,0,0,0,0,0,0,0,0,0
0,0,100,2047,-119,601,-32,1,227,0,0,0,0,0,0,0,0,0,0,0
0,0,96,2053,-124,601,-33,1,224,0,0,0,0,0,0,0,0,0,0,0
0,0,93,2047,-107,602,-30,0,234,0,0,0,0,0,0,0,0,0,0,0
0,0,105,2046,-101,600,-31,2,250,0,0,0,0,0,0,0,0,0,0,0
0,0,99,2049,-107,601,-31,1,242,0,0,0,0,0,0,0,0,0,0,0
0,0,108,2044,-109,599,-34,0,237,0,0,0,0,0,0,0,0,0,0,0
0,0,98,2048,-109,600,-32,2,237,0,0,0,0,0,0,0,0,0,0,0
0,0,100,2049,-122,600,-31,2,228,0,0,0,0,0,0,0,0,0,0,0
0,0,108,2039,-112,601,-31,2,236,0,0,0,0,0,0,0,0,0,0,0
0,0,105,2047,-110,600,-33,2,240,0,0,0,0,0,0,0,0,0,0,0
0,0,98,2050,-113,600,-33,2,234,0,0,0,0,0,0,0,0,0,0,0
0,0,103,2052,-113,600,-31,0,241,0,0,0,0,0,0,0,0,0,0,0
0,0,93,2051,-105,600,-31,2,240,0,0,0,0,0,0,0,0,0,0,0
0,0,103,2051,-118,599,-33,0,232,0,0,0,0,0,0,0,0,0,0,0
0,0,106,2044,-113,602,-32,1,237,0,0,0,0,0,0,0,0,0,0,0
0,0,107,2047,-114,600,-31,1,239,0,0,0,0,0,0,0,0,0,0,0
0,0,98,2046,-122,599,-30,2,222,0,0,0,0,0,0,0,0,0,0,0
0,0,97,2042,-121,600,-31,1,217,0,0,0,0,0,0,0,0,0,0,0
0,0,96,2048,-109,599,-32,2,234,0,0,0,0,0,0,0,0,0,0,0
0,0,99,2047,-115,601,-33,2,230,0,0,0,0,0,0,0,0,0,0,0
0,0,100,2040,-111,600,-32,2,228,0,0,0,0,0,0,0,0,0,0,0
0,0,98,2044,-101,600,-32,2,240,0,0,0,0,0,0,0,0,0,0,0
0,0,96,2048,-111,599,-32,1,231,0,0,0,0,0,0,0,0,0,0,0
0,0,107,2044,-107,600,-32,2,243,0,0,0,0,0,0,0,0,0,0,0
0,0,103,2054,-112,600,-32,1,244,0,0,0,0,0,0,0,0,0,0,0
0,0,99,2056,-114,599,-30,0,240,0,0,0,0,0,0,0,0,0,0,0
0,0,101,2050,-108,599,-32,2,242,0,0,0,0,0,0,0,0,0,0,0
0,0,99,2044,-104,601,-31,1,239,0,0,0,0,0,0,0,0,0,0,0
0,0,104,2052,-106,599,-30,-2,246,0,0,0,0,0,0,0,0,0,0,0
0,0,99,2047,-111,600,-32,1,233,0,0,0,0,0,0,0,0,0,0,0
0,0,103,2043,-114,600,-33,1,229,0,0,0,0,0,0,0,0,0,0,0
0,0,99,2045,-116,600,-32,2,227,0,0,0,0,0,0,0,0,0,0,0
0,0,100,2046,-114,599,-30,1,231,0,0,0,0,0,0,0,0,0,0,0
0,0,106,2047,-120,600,-31,2,233,0,0,0,0,0,0,0,0,0,0,0
0,0,104,2047,-109,599,-32,3,241,0,0,0,0,0,0,0,0,0,0,0
0,0,102,2042,-115,600,-32,2,228,0,0,0,0,0,0,0,0,0,0,0
0,0,104,2047,-108,601,-32,1,242,0,0,0,0,0,0,0,0,0,0,0
0,0,99,2045,-113,601,-32,1,230,0,0,0,0,0,0,0,0,0,0,0
0,0,97,2046,-124,602,-31,0,219,0,0,0,0,0,0,0,0,0,0,0
0,0,98,2045,-112,600,-31,2,231,0,0,0,0,0,0,0,0,0,0,0
0,0,102,2046,-112,600,-31,2,236,0,0,0,0,0,0,0,0,0,0,0
0,0,101,2047,-114,600,-31,1,233,0,0,0,0,0,0,0,0,0,0,0
0,0,103,2046,-106,600,-31,2,243,0,0,0,0,0,0,0,0,0,0,0
0,0,102,2048,-123,599,-33,1,224,0,0,0,0,0,0,0,0,0,0,0
0,0,100,2040,-108,600,-32,3,232,0,0,0,0,0,0,0,0,0,0,0
0,0,99,2044,-106,600,-31,3,238,0,0,0,0,0,0,0,0,0,0,0
0,0,101,2053,-118,600,-32,1,235,0,0,0,0,0,0,0,0,0,0,0
0,0,96,2046,-121,600,-31,2,221,0,0,0,0,0,0,0,0,0,0,0
0,0,97,2050,-110,599,-32,1,235,0,0,0,0,0,0,0,0,0,0,0
0,0,95,2046,-110,600,-31,3,232,0,0,0,0,0,0,0,0,0,0,0
0,0,101,2050,-109,599,-32,0,239,0,0,0,0,0,0,0,0,0,0,0
0,0,105,2042,-109,600,-32,1,236,0,0,0,0,0,0,0,0,0,0,0
0,0,96,2048,-106,600,-34,1,235,0,0,0,0,0,0,0,0,0,0,0
0,0,105,2051,-105,599,-32,1,249,0,0,0,0,0,0,0,0,0,0,0
0,0,97,2042,-117,602,-30,0,223,0,0,0,0,0,0,0,0,0,0,0
0,0,104,2047,-110,600,-33,0,237,0,0,0,0,0,0,0,0,0,0,0
0,0,104,2040,-117,599,-32,0,223,0,0,0,0,0,0,0,0,0,0,0
0,0,101,2049,-108,600,-33,2,241,0,0,0,0,0,0,0,0,0,0,0
0,0,98,2051,-118,600,-32,1,230,0,0,0,0,0,0,0,0,0,0,0
0,0,103,2049,-111,600,-33,0,238,0,0,0,0,0,0,0,0,0,0,0
0,0,101,2046,-124,600,-32,1,221,0,0,0,0,0,0,0,0,0,0,0
0,0,97,2051,-110,599,-32,3,238,0,0,0,0,0,0,0,0,0,0,0
0,0,93,2048,-111,599,-30,2,231,0,0,0,0,0,0,0,0,0,0,0
0,0,96,2059,-105,600,-31,0,249,0,0,0,0,0,0,0,0,0,0,0
0,0,98,2047,-107,599,-33,-1,231,0,0,0,0,0,0,0,0,0,0,0
0,0,101,2058,-117,600,-32,0,240,0,0,0,0,0,0,0,0,0,0,0
0,0,97,2044,-116,600,-33,2,223,0,0,0,0,0,0,0,0,0,0,0
0,0,105,2040,-105,600,-33,3,239,0,0,0,0,0,0,0,0,0,0,0
0,0,107,2049,-106,599,-32,1,248,0,0,0,0,0,0,0,0,0,0,0
0,0,106,2053,-112,601,-32,1,247,0,0,0,0,0,0,0,0,0,0,0
0,0,107,2039,-120,599,-31,1,224,0,0,0,0,0,0,0,0,0,0,0
0,0,99,2049,-114,600,-33,1,232,0,0,0,0,0,0,0,0,0,0,0
0,0,100,2053,-111,599,-31,1,241,0,0,0,0,0,0,0,0,0,0,0
0,0,105,2050,-111,599,-30,1,244,0,0,0,0,0,0,0,0,0,0,0
0,0,96,2051,-107,600,-32,3,241,0,0,0,0,0,0,0,0,0,0,0
0,0,101,2054,-105,598,-32,1,247,0,0,0,0,0,0,0,0,0,0,0
0,0,91,2052,-105,599,-32,-1,233,0,0,0,0,0,0,0,0,0,0,0
0,0,101,2044,-114,600,-32,0,228,0,0,0,0,0,0,0,0,0,0,0
0,0,106,2047,-118,600,-32,0,232,0,0,0,0,0,0,0,0,0,0,0
0,0,101,2046,-111,602,-32,1,236,0,0,0,0,0,0,0,0,0,0,0
0,0,105,2052,-123,601,-32,0,233,0,0,0,0,0,0,0,0,0,0,0
0,0,102,2053,-123,601,-32,1,232,0,0,0,0,0,0,0,0,0,0,0
0,0,98,2050,-118,600,-32,2,230,0,0,0,0,0,0,0,0,0,0,0
0,0,102,2054,-116,598,-32,2,238,0,0,0,0,0,0,0,0,0,0,0
0,0,100,2055,-114,600,-34,1,238,0,0,0,0,0,0,0,0,0,0,0
0,0,104,2046,-115,598,-32,3,233,0,0,0,0,0,0,0,0,0,0,0
0,0,102,2050,-124,601,-33,1,227,0,0,0,0,0,0,0,0,0,0,0
0,0,98,2051,-117,600,-31,1,232,0,0,0,0,0,0,0,0,0,0,0
0,0,106,2050,-112,600,-30,1,245,0,0,0,0,0,0,0,0,0,0,0
0,0,105,2044,-111,600,-32,0,235,0,0,0,0,0,0,0,0,0,0,0
0,0,100,2041,-104,599,-30,0,235,0,0,0,0,0,0,0,0,0,0,0
0,0,99,2036,-115,598,-30,0,217,0,0,0,0,0,0,0,0,0,0,0
0,0,97,2053,-112,600,-32,1,237,0,0,0,0,0,0,0,0,0,0,0
0,0,99,2043,-106,599,-30,1,235,0,0,0,0,0,0,0,0,0,0,0
0,0,105,2043,-106,600,-33,2,240,0,0,0,0,0,0,0,0,0,0,0
0,0,102,2038,-111,599,-31,1,227,0,0,0,0,0,0,0,0,0,0,0
0,0,93,2042,-108,600,-33,0,223,0,0,0,0,0,0,0,0,0,0,0
0,0,103,2044,-109,598,-31,0,234,0,0,0,0,0,0,0,0,0,0,0
0,0,96,2043,-116,601,-31,0,222,0,0,0,0,0,0,0,0,0,0,0
0,0,101,2042,-116,602,-31,1,228,0,0,0,0,0,0,0,0,0,0,0
0,0,93,2039,-109,600,-31,0,221,0,0,0,0,0,0,0,0,0,0,0
0,0,97,2039,-112,601,-32,2,224,0,0,0,0,0,0,0,0,0,0,0
0,0,103,2045,-112,600,-32,0,233,0,0,0,0,0,0,0,0,0,0,0
0,0,102,2055,-109,600,-31,1,248,0,0,0,0,0,0,0,0,0,0,0
0,0,104,2051,-103,600,-31,0,251,0,0,0,0,0,0,0,0,0,0,0
0,0,106,2051,-113,599,-31,1,243,0,0,0,0,0,0,0,0,0,0,0
0,0,96,2046,-111,601,-32,2,231,0,0,0,0,0,0,0,0,0,0,0
0,0,101,2055,-114,598,-32,2,240,0,0,0,0,0,0,0,0,0,0,0
0,0,103,2046,-104,601,-30,1,246,0,0,0,0,0,0,0,0,0,0,0
0,0,103,2048,-105,601,-32,0,245,0,0,0,0,0,0,0,0,0,0,0
0,0,97,2056,-116,598,-32,2,235,0,0,0,0,0,0,0,0,0,0,0
0,0,98,2048,-124,601,-31,3,225,0,0,0,0,0,0,0,0,0,0,0
0,0,92,2050,-115,601,-32,3,229,0,0,0,0,0,0,0,0,0,0,0
0,0,93,2047,-111,601,-32,1,228,0,0,0,0,0,0,0,0,0,0,0
0,0,99,2048,-112,600,-32,1,234,0,0,0,0,0,0,0,0,0,0,0
0,0,100,2043,-97,600,-33,1,243,0,0,0,0,0,0,0,0,0,0,0
0,0,105,2044,-111,600,-30,1,238,0,0,0,0,0,0,0,0,0,0,0
0,0,106,2047,-115,598,-32,2,235,0,0,0,0,0,0,0,0,0,0,0
0,0,99,2043,-110,601,-32,1,231,0,0,0,0,0,0,0,0,0,0,0
0,0,99,2042,-106,601,-31,1,235,0,0,0,0,0,0,0,0,0,0,0
0,0,100,2046,-112,601,-33,0,231,0,0,0,0,0,0,0,0,0,0,0
0,0,110,2048,-119,602,-34,1,238,0,0,0,0,0,0,0,0,0,0,0
0,0,103,2048,-112,601,-32,2,240,0,0,0,0,0,0,0,0,0,0,0
0,0,98,2049,-110,600,-31,1,237,0,0,0,0,0,0,0,0,0,0,0
0,0,102,2044,-105,601,-31,1,241,0,0,0,0,0,0,0,0,0,0,0
0,0,104,2047,-113,600,-34,0,233,0,0,0,0,0,0,0,0,0,0,0
0,0,97,2051,-108,600,-32,1,239,0,0,0,0,0,0,0,0,0,0,0
0,0,103,2059,-112,601,-32,1,250,0,0,0,0,0,0,0,0,0,0,0
0,0,98,2052,-115,600,-32,0,233,0,0,0,0,0,0,0,0,0,0,0
0,0,98,2046,-112,601,-31,3,234,0,0,0,0,0,0,0,0,0,0,0
0,0,96,2043,-119,600,-31,3,221,0,0,0,0,0,0,0,0,0,0,0
0,0,100,2044,-117,600,-32,0,224,0,0,0,0,0,0,0,0,0,0,0
0,0,101,2051,-121,600,-32,0,229,0,0,0,0,0,0,0,0,0,0,0
0,0,100,2049,-111,601,-31,1,239,0,0,0,0,0,0,0,0,0,0,0
0,0,103,2043,-106,599,-31,2,239,0,0,0,0,0,0,0,0,0,0,0
0,0,101,2048,-117,601,-31,0,232,0,0,0,0,0,0,0,0,0,0,0
0,0,92,2039,-113,599,-32,1,215,0,0,0,0,0,0,0,0,0,0,0
0,0,99,2045,-111,599,-31,1,231,0,0,0,0,0,0,0,0,0,0,0
0,0,95,2048,-107,601,-32,3,238,0,0,0,0,0,0,0,0,0,0,0
0,0,103,2054,-107,599,-32,2,249,0,0,0,0,0,0,0,0,0,0,0
0,0,98,2048,-123,601,-33,1,222,0,0,0,0,0,0,0,0,0,0,0
0,0,101,2049,-108,600,-32,0,240,0,0,0,0,0,0,0,0,0,0,0
0,0,95,2047,-110,600,-33,-1,226,0,0,0,0,0,0,0,0,0,0,0
0,0,95,2051,-106,600,-33,2,239,0,0,0,0,0,0,0,0,0,0,0
0,0,106,2047,-97,600,-32,0,253,0,0,0,0,0,0,0,0,0,0,0
0,0,99,2050,-103,601,-32,3,248,0,0,0,0,0,0,0,0,0,0,0
0,0,96,2045,-110,599,-34,2,227,0,0,0,0,0,0,0,0,0,0,0
0,0,96,2057,-113,600,-32,2,240,0,0,0,0,0,0,0,0,0,0,0
0,0,102,2054,-118,600,-31,2,239,0,0,0,0,0,0,0,0,0,0,0
0,0,103,2053,-111,600,-31,2,246,0,0,0,0,0,0,0,0,0,0,0
0,0,101,2054,-111,599,-32,3,244,0,0,0,0,0,0,0,0,0,0,0
0,0,100,2051,-106,600,-32,1,244,0,0,0,0,0,0,0,0,0,0,0
0,0,106,2049,-104,599,-32,0,248,0,0,0,0,0,0,0,0,0,0,0
0,0,104,2047,-112,600,-32,0,236,0,0,0,0,0,0,0,0,0,0,0
0,0,99,2051,-112,600,-33,0,235,0,0,0,0,0,0,0,0,0,0,0
0,0,96,2046,-109,600,-33,1,230,0,0,0,0,0,0,0,0,0,0,0
0,0,96,2047,-117,600,-32,2,225,0,0,0,0,0,0,0,0,0,0,0
0,0,97,2044,-110,600,-34,2,228,0,0,0,0,0,0,0,0,0,0,0
0,0,102,2049,-106,602,-32,1,246,0,0,0,0,0,0,0,0,0,0,0
0,0,98,2054,-111,600,-32,2,241,0,0,0,0,0,0,0,0,0,0,0
0,0,100,2049,-116,599,-30,2,234,0,0,0,0,0,0,0,0,0,0,0
0,0,96,2048,-111,601,-32,3,235,0,0,0,0,0,0,0,0,0,0,0
0,0,100,2047,-110,601,-32,0,235,0,0,0,0,0,0,0,0,0,0,0
0,0,102,2047,-108,600,-31,2,241,0,0,0,0,0,0,0,0,0,0,0
0,0,101,2049,-109,602,-31,0,242,0,0,0,0,0,0,0,0,0,0,0
0,0,97,2056,-103,601,-31,1,251,0,0,0,0,0,0,0,0,0,0,0
0,0,101,2044,-112,601,-32,2,233,0,0,0,0,0,0,0,0,0,0,0
0,0,94,2051,-116,600,-33,2,228,0,0,0,0,0,0,0,0,0,0,0
0,0,104,2056,-115,600,-33,0,242,0,0,0,0,0,0,0,0,0,0,0
0,0,102,2052,-104,601,-33,2,250,0,0,0,0,0,0,0,0,0,0,0
0,0,102,2046,-107,601,-33,2,240,0,0,0,0,0,0,0,0,0,0,0
0,0,106,2047,-121,601,-32,1,231,0,0,0,0,0,0,0,0,0,0,0
0,0,107,2046,-124,600,-31,1,228,0,0,0,0,0,0,0,0,0,0,0
0,0,98,2045,-108,599,-31,2,234,0,0,0,0,0,0,0,0,0,0,0
0,0,103,2040,-106,600,-30,2,238,0,0,0,0,0,0,0,0,0,0,0
0,0,97,2050,-108,601,-32,0,238,0,0,0,0,0,0,0,0,0,0,0
0,0,101,2053,-113,600,-33,1,239,0,0,0,0,0,0,0,0,0,0,0
0,0,101,2043,-114,601,-31,1,230,0,0,0,0,0,0,0,0,0,0,0
0,0,107,2043,-101,600,-31,3,250,0,0,0,0,0,0,0,0,0,0,0
0,0,105,2045,-112,600,-32,2,237,0,0,0,0,0,0,0,0,0,0,0
0,0,106,2046,-110,599,-33,0,237,0,0,0,0,0,0,0,0,0,0,0
0,0,97,2052,-101,599,-32,4,249,0,0,0,0,0,0,0,0,0,0,0
0,0,105,2050,-112,600,-31,2,244,0,0,0,0,0,0,0,0,0,0,0
0,0,100,2045,-109,601,-32,2,236,0,0,0,0,0,0,0,0,0,0,0
0,0,94,2051,-105,601,-31,1,241,0,0,0,0,0,0,0,0,0,0,0
0,0,103,2045,-102,600,-31,2,246,0,0,0,0,0,0,0,0,0,0,0
0,0,103,2049,-107,600,-33,1,243,0,0,0,0,0,0,0,0,0,0,0
0,0,93,2050,-113,599,-31,3,231,0,0,0,0,0,0,0,0,0,0,0
0,0,96,2044,-109,600,-32,1,229,0,0,0,0,0,0,0,0,0,0,0
0,0,103,2048,-108,600,-32,1,242,0,0,0,0,0,0,0,0,0,0,0
0,0,102,2057,-113,600,-31,2,247,0,0,0,0,0,0,0,0,0,0,0
0,0,95,2049,-115,600,-32,3,230,0,0,0,0,0,0,0,0,0,0,0
0,0,97,2048,-110,601,-31,3,238,0,0,0,0,0,0,0,0,0,0,0
0,0,106,2042,-117,601,-33,2,230,0,0,0,0,0,0,0,0,0,0,0
0,0,101,2051,-109,601,-32,2,244,0,0,0,0,0,0,0,0,0,0,0
0,0,95,2051,-111,601,-33,1,234,0,0,0,0,0,0,0,0,0,0,0
0,0,105,2047,-115,600,-33,2,235,0,0,0,0,0,0,0,0,0,0,0
0,0,102,2046,-119,601,-31,2,230,0,0,0,0,0,0,0,0,0,0,0
0,0,104,2054,-113,600,-31,2,246,0,0,0,0,0,0,0,0,0,0,0
0,0,99,2052,-107,600,-31,1,244,0,0,0,0,0,0,0,0,0,0,0
0,0,96,2044,-104,600,-32,2,235,0,0,0,0,0,0,0,0,0,0,0
0,0,101,2049,-112,601,-31,1,239,0,0,0,0,0,0,0,0,0,0,0
0,0,100,2048,-111,600,-32,1,236,0,0,0,0,0,0,0,0,0,0,0
0,0,100,2049,-121,600,-33,1,226,0,0,0,0,0,0,0,0,0,0,0
0,0,107,2048,-113,602,-30,2,246,0,0,0,0,0,0,0,0,0,0,0
0,0,101,2048,-112,600,-33,2,236,0,0,0,0,0,0,0,0,0,0,0
0,0,93,2041,-117,601,-33,1,215,0,0,0,0,0,0,0,0,0,0,0
0,0,97,2045,-116,599,-32,1,223,0,0,0,0,0,0,0,0,0,0,0
0,0,106,2047,-109,601,-32,1,243,0,0,0,0,0,0,0,0,0,0,0
0,0,97,2047,-113,601,-33,1,229,0,0,0,0,0,0,0,0,0,0,0
0,0,101,2048,-115,600,-32,2,234,0,0,0,0,0,0,0,0,0,0,0
0,0,98,2038,-117,599,-33,2,216,0,0,0,0,0,0,0,0,0,0,0
0,0,98,2048,-112,600,-32,2,234,0,0,0,0,0,0,0,0,0,0,0
0,0,103,2050,-109,599,-32,2,243,0,0,0,0,0,0,0,0,0,0,0
0,0,102,2052,-117,598,-32,2,235,0,0,0,0,0,0,0,0,0,0,0
0,0,102,2042,-115,600,-32,2,228,0,0,0,0,0,0,0,0,0,0,0
0,0,106,2040,-111,600,-32,1,233,0,0,0,0,0,0,0,0,0,0,0
0,0,104,2046,-111,601,-32,1,238,0,0,0,0,0,0,0,0,0,0,0
0,0,100,2046,-99,602,-30,0,248,0,0,0,0,0,0,0,0,0,0,0
0,0,99,2053,-120,599,-31,2,232,0,0,0,0,0,0,0,0,0,0,0
0,0,99,2042,-128,599,-31,2,212,0,0,0,0,0,0,0,0,0,0,0
0,0,107,2047,-113,601,-32,1,240,0,0,0,0,0,0,0,0,0,0,0
0,0,98,2042,-120,601,-30,2,222,0,0,0,0,0,0,0,0,0,0,0
0,0,104,2047,-122,601,-32,0,227,0,0,0,0,0,0,0,0,0,0,0
0,0,100,2044,-102,599,-31,1,240,0,0,0,0,0,0,0,0,0,0,0
0,0,97,2045,-107,600,-31,2,235,0,0,0,0,0,0,0,0,0,0,0
0,0,104,2047,-112,600,-32,1,237,0,0,0,0,0,0,0,0,0,0,0
0,0,104,2050,-114,600,-31,1,240,0,0,0,0,0,0,0,0,0,0,0
0,0,96,2050,-102,600,-32,2,244,0,0,0,0,0,0,0,0,0,0,0
0,0,99,2044,-104,599,-31,1,237,0,0,0,0,0,0,0,0,0,0,0
0,0,104,2045,-114,599,-31,1,233,0,0,0,0,0,0,0,0,0,0,0
0,0,101,2052,-113,600,-33,2,239,0,0,0,0,0,0,0,0,0,0,0
0,0,95,2047,-120,602,-31,1,223,0,0,0,0,0,0,0,0,0,0,0
0,0,95,2059,-114,600,-32,0,238,0,0,0,0,0,0,0,0,0,0,0
0,0,97,2052,-120,601,-31,1,230,0,0,0,0,0,0,0,0,0,0,0
0,0,105,2052,-113,602,-31,1,246,0,0,0,0,0,0,0,0,0,0,0
0,0,93,2049,-116,600,-32,2,226,0,0,0,0,0,0,0,0,0,0,0
0,0,100,2041,-117,599,-31,2,223,0,0,0,0,0,0,0,0,0,0,0
0,0,98,2050,-119,598,-32,1,226,0,0,0,0,0,0,0,0,0,0,0
0,0,96,2046,-114,600,-31,1,227,0,0,0,0,0,0,0,0,0,0,0
0,0,97,2054,-125,601,-31,2,228,0,0,0,0,0,0,0,0,0,0,0
0,0,99,2049,-100,600,-31,1,248,0,0,0,0,0,0,0,0,0,0,0
0,0,102,2050,-106,598,-32,3,245,0,0,0,0,0,0,0,0,0,0,0
0,0,94,2044,-109,600,-31,2,229,0,0,0,0,0,0,0,0,0,0,0
0,0,102,2053,-115,600,-31,1,240,0,0,0,0,0,0,0,0,0,0,0
0,0,103,2045,-111,600,-31,2,237,0,0,0,0,0,0,0,0,0,0,0
0,0,102,2051,-112,599,-32,0,238,0,0,0,0,0,0,0,0,0,0,0
0,0,103,2048,-116,600,-30,2,237,0,0,0,0,0,0,0,0,0,0,0
0,0,96,2059,-126,601,-32,2,230,0,0,0,0,0,0,0,0,0,0,0
0,0,99,2052,-113,599,-32,2,237,0,0,0,0,0,0,0,0,0,0,0
0,0,91,2037,-118,599,-31,2,209,0,0,0,0,0,0,0,0,0,0,0
0,0,98,2051,-114,600,-33,1,233,0,0,0,0,0,0,0,0,0,0,0
0,0,108,2051,-110,601,-32,0,248,0,0,0,0,0,0,0,0,0,0,0
0,0,102,2052,-112,600,-31,2,243,0,0,0,0,0,0,0,0,0,0,0
0,0,103,2050,-107,600,-31,2,247,0,0,0,0,0,0,0,0,0,0,0
0,0,100,2047,-112,601,-32,1,234,0,0,0,0,0,0,0,0,0,0,0
0,0,98,2043,-109,600,-30,0,231,0,0,0,0,0,0,0,0,0,0,0
0,0,101,2045,-116,600,-33,1,227,0,0,0,0,0,0,0,0,0,0,0
0,0,96,2046,-116,601,-32,1,225,0,0,0,0,0,0,0,0,0,0,0
0,0,94,2044,-118,600,-31,0,218,0,0,0,0,0,0,0,0,0,0,0
0,0,104,2045,-113,602,-32,0,235,0,0,0,0,0,0,0,0,0,0,0
0,0,99,2038,-118,601,-33,0,216,0,0,0,0,0,0,0,0,0,0,0
0,0,97,2054,-108,600,-33,2,242,0,0,0,0,0,0,0,0,0,0,0
0,0,105,2040,-110,600,-32,1,233,0,0,0,0,0,0,0,0,0,0,0
0,0,105,2048,-110,599,-32,1,241,0,0,0,0,0,0,0,0,0,0,0
0,0,103,2047,-111,598,-32,2,236,0,0,0,0,0,0,0,0,0,0,0
0,0,100,2047,-110,601,-31,1,237,0,0,0,0,0,0,0,0,0,0,0
0,0,97,2048,-108,602,-33,0,236,0,0,0,0,0,0,0,0,0,0,0
0,0,104,2046,-114,600,-31,2,236,0,0,0,0,0,0,0,0,0,0,0
0,0,101,2053,-120,601,-32,2,235,0,0,0,0,0,0,0,0,0,0,0
0,0,97,2060,-107,601,-31,2,252,0,0,0,0,0,0,0,0,0,0,0
0,0,100,2053,-115,600,-34,0,234,0,0,0,0,0,0,0,0,0,0,0
0,0,96,2050,-110,600,-33,-1,231,0,0,0,0,0,0,0,0,0,0,0
0,0,99,2050,-111,601,-31,2,240,0,0,0,0,0,0,0,0,0,0,0
0,0,101,2046,-116,600,-33,3,230,0,0,0,0,0,0,0,0,0,0,0
0,0,103,2054,-115,599,-31,2,242,0,0,0,0,0,0,0,0,0,0,0
0,0,98,2049,-121,599,-33,0,222,0,0,0,0,0,0,0,0,0,0,0
0,0,99,2041,-112,602,-32,1,228,0,0,0,0,0,0,0,0,0,0,0
0,0,97,2045,-98,599,-31,2,243,0,0,0,0,0,0,0,0,0,0,0
0,0,99,2045,-109,600,-33,1,232,0,0,0,0,0,0,0,0,0,0,0
0,0,98,2054,-103,601,-32,1,249,0,0,0,0,0,0,0,0,0,0,0
0,0,95,2050,-116,599,-31,0,227,0,0,0,0,0,0,0,0,0,0,0
0,0,98,2050,-112,600,-32,0,234,0,0,0,0,0,0,0,0,0,0,0
0,0,99,2049,-105,601,-32,3,245,0,0,0,0,0,0,0,0,0,0,0
0,0,100,2036,-117,601,-32,2,219,0,0,0,0,0,0,0,0,0,0,0
0,0,97,2049,-119,601,-31,2,229,0,0,0,0,0,0,0,0,0,0,0
0,0,98,2052,-113,601,-31,2,239,0,0,0,0,0,0,0,0,0,0,0
0,0,101,2048,-106,600,-33,2,242,0,0,0,0,0,0,0,0,0,0,0
0,0,98,2054,-115,600,-29,2,240,0,0,0,0,0,0,0,0,0,0,0
0,0,101,2043,-114,601,-30,1,231,0,0,0,0,0,0,0,0,0,0,0
0,0,100,2042,-122,599,-31,2,219,0,0,0,0,0,0,0,0,0,0,0
0,0,99,2042,-108,601,-32,2,233,0,0,0,0,0,0,0,0,0,0,0
0,0,106,2055,-114,600,-31,2,248,0,0,0,0,0,0,0,0,0,0,0
0,0,95,2048,-107,600,-32,1,235,0,0,0,0,0,0,0,0,0,0,0
0,0,103,2046,-111,601,-31,1,238,0,0,0,0,0,0,0,0,0,0,0
0,0,108,2041,-118,600,-30,2,232,0,0,0,0,0,0,0,0,0,0,0
0,0,102,2048,-111,601,-31,2,241,0,0,0,0,0,0,0,0,0,0,0
0,0,103,2051,-117,599,-30,2,238,0,0,0,0,0,0,0,0,0,0,0
0,0,101,2047,-110,601,-31,1,238,0,0,0,0,0,0,0,0,0,0,0
0,0,98,2044,-116,600,-32,3,226,0,0,0,0,0,0,0,0,0,0,0
0,0,102,2047,-113,601,-31,2,237,0,0,0,0,0,0,0,0,0,0,0
0,0,102,2048,-113,600,-31,2,238,0,0,0,0,0,0,0,0,0,0,0
0,0,103,2046,-117,600,-31,3,233,0,0,0,0,0,0,0,0,0,0,0
0,0,99,2044,-117,600,-32,2,225,0,0,0,0,0,0,0,0,0,0,0
0,0,94,2044,-103,602,-33,2,235,0,0,0,0,0,0,0,0,0,0,0
0,0,104,2041,-104,600,-32,1,239,0,0,0,0,0,0,0,0,0,0,0
0,0,96,2047,-111,600,-31,2,232,0,0,0,0,0,0,0,0,0,0,0
0,0,107,2055,-113,599,-33,1,246,0,0,0,0,0,0,0,0,0,0,0
0,0,99,2048,-111,599,-33,0,232,0,0,0,0,0,0,0,0,0,0,0
0,0,104,2048,-117,601,-32,1,235,0,0,0,0,0,0,0,0,0,0,0
0,0,98,2044,-118,600,-32,1,222,0,0,0,0,0,0,0,0,0,0,0
0,0,95,2044,-106,600,-32,1,231,0,0,0,0,0,0,0,0,0,0,0
0,0,95,2047,-113,600,-32,1,227,0,0,0,0,0,0,0,0,0,0,0
0,0,96,2045,-113,598,-32,1,224,0,0,0,0,0,0,0,0,0,0,0
0,0,100,2044,-122,601,-32,0,220,0,0,0,0,0,0,0,0,0,0,0
0,0,101,2053,-111,601,-32,-1,240,0,0,0,0,0,0,0,0,0,0,0
0,0,101,2045,-118,600,-32,1,226,0,0,0,0,0,0,0,0,0,0,0
0,0,95,2048,-117,601,-32,3,228,0,0,0,0,0,0,0,0,0,0,0
0,0,95,2048,-118,601,-32,0,224,0,0,0,0,0,0,0,0,0,0,0
0,0,97,2047,-108,600,-31,1,235,0,0,0,0,0,0,0,0,0,0,0
0,0,102,2044,-104,600,-31,1,241,0,0,0,0,0,0,0,0,0,0,0
0,0,95,2048,-116,600,-31,0,226,0,0,0,0,0,0,0,0,0,0,0
0,0,99,2042,-112,599,-33,1,225,0,0,0,0,0,0,0,0,0,0,0
0,0,101,2047,-111,601,-33,1,235,0,0,0,0,0,0,0,0,0,0,0
0,0,103,2052,-111,600,-32,0,242,0,0,0,0,0,0,0,0,0,0,0
0,0,102,2049,-110,601,-32,0,240,0,0,0,0,0,0,0,0,0,0,0
0,0,93,2050,-112,600,-31,1,231,0,0,0,0,0,0,0,0,0,0,0
0,0,100,2052,-112,599,-31,1,239,0,0,0,0,0,0,0,0,0,0,0
0,0,98,2046,-115,599,-32,0,225,0,0,0,0,0,0,0,0,0,0,0
0,0,100,2043,-116,600,-32,1,225,0,0,0,0,0,0,0,0,0,0,0
0,0,98,2051,-120,600,-33,2,228,0,0,0,0,0,0,0,0,0,0,0
0,0,108,2044,-116,598,-31,1,233,0,0,0,0,0,0,0,0,0,0,0
0,0,106,2049,-111,599,-31,1,243,0,0,0,0,0,0,0,0,0,0,0
0,0,105,2044,-106,599,-34,1,238,0,0,0,0,0,0,0,0,0,0,0
0,0,103,2051,-113,599,-31,0,239,0,0,0,0,0,0,0,0,0,0,0
0,0,102,2051,-113,599,-32,2,239,0,0,0,0,0,0,0,0,0,0,0
0,0,104,2049,-113,601,-32,1,240,0,0,0,0,0,0,0,0,0,0,0
0,0,95,2046,-98,600,-32,0,240,0,0,0,0,0,0,0,0,0,0,0
0,0,96,2046,-111,600,-31,2,231,0,0,0,0,0,0,0,0,0,0,0
0,0,98,2045,-112,600,-32,2,230,0,0,0,0,0,0,0,0,0,0,0
0,0,103,2043,-112,600,-32,1,232,0,0,0,0,0,0,0,0,0,0,0
0,0,95,2043,-115,601,-32,2,223,0,0,0,0,0,0,0,0,0,0,0
0,0,96,2047,-124,600,-33,2,217,0,0,0,0,0,0,0,0,0,0,0
0,0,108,2050,-109,600,-33,1,247,0,0,0,0,0,0,0,0,0,0,0
0,0,95,2053,-114,600,-33,1,232,0,0,0,0,0,0,0,0,0,0,0
0,0,96,2049,-117,600,-33,-1,223,0,0,0,0,0,0,0,0,0,0,0
0,0,102,2047,-118,601,-31,0,230,0,0,0,0,0,0,0,0,0,0,0
0,0,96,2052,-106,600,-31,2,243,0,0,0,0,0,0,0,0,0,0,0
0,0,99,2051,-113,597,-32,1,233,0,0,0,0,0,0,0,0,0,0,0
0,0,101,2048,-109,600,-31,2,241,0,0,0,0,0,0,0,0,0,0,0
0,0,94,2046,-112,600,-32,0,225,0,0,0,0,0,0,0,0,0,0,0
0,0,97,2049,-106,600,-32,2,240,0,0,0,0,0,0,0,0,0,0,0
0,0,104,2051,-111,601,-31,1,245,0,0,0,0,0,0,0,0,0,0,0
0,0,97,2057,-110,600,-32,3,245,0,0,0,0,0,0,0,0,0,0,0
0,0,107,2050,-110,600,-32,2,247,0,0,0,0,0,0,0,0,0,0,0
0,0,99,2044,-111,598,-30,2,231,0,0,0,0,0,0,0,0,0,0,0
0,0,94,2046,-117,599,-31,3,223,0,0,0,0,0,0,0,0,0,0,0
0,0,91,2048,-115,600,-31,2,225,0,0,0,0,0,0,0,0,0,0,0
0,0,97,2046,-112,600,-31,2,231,0,0,0,0,0,0,0,0,0,0,0
0,0,99,2056,-111,598,-33,1,240,0,0,0,0,0,0,0,0,0,0,0
0,0,102,2045,-109,600,-33,3,237,0,0,0,0,0,0,0,0,0,0,0
0,0,100,2055,-107,600,-32,1,247,0,0,0,0,0,0,0,0,0,0,0
0,0,95,2049,-103,600,-30,2,243,0,0,0,0,0,0,0,0,0,0,0
0,0,105,2047,-109,599,-32,0,239,0,0,0,0,0,0,0,0,0,0,0
0,0,101,2050,-109,600,-30,1,243,0,0,0,0,0,0,0,0,0,0,0
0,0,102,2044,-106,601,-30,2,242,0,0,0,0,0,0,0,0,0,0,0
0,0,105,2054,-121,598,-31,2,237,0,0,0,0,0,0,0,0,0,0,0
0,0,104,2051,-112,599,-31,0,241,0,0,0,0,0,0,0,0,0,0,0
0,0,94,2047,-109,602,-32,1,232,0,0,0,0,0,0,0,0,0,0,0
0,0,94,2042,-112,602,-32,2,225,0,0,0,0,0,0,0,0,0,0,0
0,0,100,2058,-108,600,-32,3,251,0,0,0,0,0,0,0,0,0,0,0
0,0,100,2048,-106,600,-31,2,243,0,0,0,0,0,0,0,0,0,0,0
0,0,105,2051,-103,601,-33,2,253,0,0,0,0,0,0,0,0,0,0,0
0,0,103,2042,-119,600,-32,1,224,0,0,0,0,0,0,0,0,0,0,0
0,0,100,2043,-111,600,-32,2,231,0,0,0,0,0,0,0,0,0,0,0
0,0,104,2047,-110,599,-31,2,240,0,0,0,0,0,0,0,0,0,0,0
0,0,107,2048,-120,601,-32,1,235,0,0,0,0,0,0,0,0,0,0,0
0,0,98,2047,-104,600,-32,2,240,0,0,0,0,0,0,0,0,0,0,0
0,0,99,2046,-107,602,-33,1,237,0,0,0,0,0,0,0,0,0,0,0
0,0,95,2048,-114,601,-32,1,229,0,0,0,0,0,0,0,0,0,0,0
0,0,98,2051,-118,601,-31,1,232,0,0,0,0,0,0,0,0,0,0,0
0,0,104,2046,-113,600,-34,0,232,0,0,0,0,0,0,0,0,0,0,0
0,0,102,2041,-114,600,-31,1,228,0,0,0,0,0,0,0,0,0,0,0
0,0,97,2043,-103,600,-32,2,236,0,0,0,0,0,0,0,0,0,0,0
0,0,100,2046,-109,600,-32,0,234,0,0,0,0,0,0,0,0,0,0,0
0,0,102,2046,-105,601,-33,1,241,0,0,0,0,0,0,0,0,0,0,0
0,0,101,2052,-114,600,-32,2,239,0,0,0,0,0,0,0,0,0,0,0
0,0,100,2056,-118,599,-32,2,237,0,0,0,0,0,0,0,0,0,0,0
0,0,101,2053,-114,600,-31,1,240,0,0,0,0,0,0,0,0,0,0,0
0,0,102,2052,-109,600,-32,-1,241,0,0,0,0,0,0,0,0,0,0,0
0,0,99,2050,-99,601,-32,-1,247,0,0,0,0,0,0,0,0,0,0,0
0,0,104,2045,-106,600,-32,3,243,0,0,0,0,0,0,0,0,0,0,0
0,0,95,2047,-100,601,-32,2,242,0,0,0,0,0,0,0,0,0,0,0
0,0,98,2053,-102,601,-32,1,249,0,0,0,0,0,0,0,0,0,0,0
0,0,101,2048,-108,601,-31,2,243,0,0,0,0,0,0,0,0,0,0,0
0,0,101,2047,-114,599,-32,0,230,0,0,0,0,0,0,0,0,0,0,0
0,0,96,2042,-119,600,-32,0,216,0,0,0,0,0,0,0,0,0,0,0
0,0,96,2049,-105,601,-32,0,239,0,0,0,0,0,0,0,0,0,0,0
0,0,94,2045,-114,599,-31,0,222,0,0,0,0,0,0,0,0,0,0,0
0,0,95,2048,-118,601,-33,0,223,0,0,0,0,0,0,0,0,0,0,0
0,0,103,2046,-112,601,-32,1,236,0,0,0,0,0,0,0,0,0,0,0
0,0,102,2047,-114,600,-30,0,234,0,0,0,0,0,0,0,0,0,0,0
0,0,105,2047,-112,600,-32,2,239,0,0,0,0,0,0,0,0,0,0,0
0,0,101,2051,-102,602,-33,2,251,0,0,0,0,0,0,0,0,0,0,0
0,0,100,2049,-113,602,-31,2,239,0,0,0,0,0,0,0,0,0,0,0
0,0,99,2048,-113,600,-32,3,235,0,0,0,0,0,0,0,0,0,0,0
0,0,103,2055,-109,601,-31,4,253,0,0,0,0,0,0,0,0,0,0,0
0,0,96,2049,-105,601,-31,1,241,0,0,0,0,0,0,0,0,0,0,0
0,0,95,2051,-112,601,-33,0,232,0,0,0,0,0,0,0,0,0,0,0
0,0,106,2049,-113,602,-33,2,243,0,0,0,0,0,0,0,0,0,0,0
0,0,100,2045,-111,600,-32,1,232,0,0,0,0,0,0,0,0,0,0,0
0,0,104,2054,-109,601,-31,1,250,0,0,0,0,0,0,0,0,0,0,0
0,0,94,2051,-110,602,-33,-1,232,0,0,0,0,0,0,0,0,0,0,0
0,0,101,2050,-108,600,-32,-1,239,0,0,0,0,0,0,0,0,0,0,0
0,0,100,2044,-100,600,-33,1,241,0,0,0,0,0,0,0,0,0,0,0
0,0,99,2042,-107,600,-31,1,233,0,0,0,0,0,0,0,0,0,0,0
0,0,101,2054,-101,599,-31,2,254,0,0,0,0,0,0,0,0,0,0,0
0,0,96,2051,-113,600,-33,2,233,0,0,0,0,0,0,0,0,0,0,0
0,0,103,2052,-119,601,-31,1,237,0,0,0,0,0,0,0,0,0,0,0
0,0,105,2050,-125,601,-32,2,231,0,0,0,0,0,0,0,0,0,0,0
0,0,93,2046,-105,601,-30,1,235,0,0,0,0,0,0,0,0,0,0,0
0,0,105,2045,-112,598,-34,2,233,0,0,0,0,0,0,0,0,0,0,0
0,0,96,2046,-118,601,-32,1,223,0,0,0,0,0,0,0,0,0,0,0
0,0,102,2047,-104,601,-31,2,246,0,0,0,0,0,0,0,0,0,0,0
0,0,108,2048,-102,601,-31,2,0,0,0,0,0,0,0,0,0,0,0,0
0,0,103,2044,-104,601,-33,1,241,0,0,0,0,0,0,0,0,0,0,0
0,0,97,2049,-116,602,-32,0,230,0,0,0,0,0,0,0,0,0,0,0
0,0,104,2045,-116,601,-32,-1,229,0,0,0,0,0,0,0,0,0,0,0
0,0,100,2048,-101,601,-32,0,246,0,0,0,0,0,0,0,0,0,0,0
0,0,101,2052,-118,600,-30,2,237,0,0,0,0,0,0,0,0,0,0,0
0,0,100,2051,-125,601,-32,1,226,0,0,0,0,0,0,0,0,0,0,0
0,0,98,2050,-113,600,-32,2,235,0,0,0,0,0,0,0,0,0,0,0
0,0,102,2046,-118,600,-33,2,228,0,0,0,0,0,0,0,0,0,0,0
0,0,108,2052,-126,600,-32,2,234,0,0,0,0,0,0,0,0,0,0,0
0,0,96,2055,-112,599,-32,1,237,0,0,0,0,0,0,0,0,0,0,0
0,0,111,2050,-114,599,-30,2,248,0,0,0,0,0,0,0,0,0,0,0
0,0,104,2050,-103,601,-32,2,252,0,0,0,0,0,0,0,0,0,0,0
0,0,105,2035,-119,599,-32,0,217,0,0,0,0,0,0,0,0,0,0,0
0,0,100,2049,-125,599,-32,3,224,0,0,0,0,0,0,0,0,0,0,0
0,0,97,2052,-120,599,-32,1,227,0,0,0,0,0,0,0,0,0,0,0
0,0,98,2048,-116,601,-32,2,231,0,0,0,0,0,0,0,0,0,0,0
0,0,95,2046,-111,599,-31,1,228,0,0,0,0,0,0,0,0,0,0,0
0,0,98,2046,-112,598,-33,0,226,0,0,0,0,0,0,0,0,0,0,0
0,0,105,2042,-110,599,-33,2,234,0,0,0,0,0,0,0,0,0,0,0
0,0,109,2045,-112,603,-31,2,245,0,0,0,0,0,0,0,0,0,0,0
0,0,103,2039,-109,602,-32,2,234,0,0,0,0,0,0,0,0,0,0,0
0,0,99,2049,-111,599,-30,1,237,0,0,0,0,0,0,0,0,0,0,0
0,0,104,2051,-113,599,-32,3,242,0,0,0,0,0,0,0,0,0,0,0
0,0,96,2052,-111,599,-34,3,235,0,0,0,0,0,0,0,0,0,0,0
0,0,104,2048,-111,599,-34,1,237,0,0,0,0,0,0,0,0,0,0,0
0,0,102,2058,-114,600,-34,-1,240,0,0,0,0,0,0,0,0,0,0,0
0,0,103,2048,-104,602,-32,1,248,0,0,0,0,0,0,0,0,0,0,0
0,0,106,2050,-112,600,-32,2,244,0,0,0,0,0,0,0,0,0,0,0
0,0,107,2051,-110,601,-32,1,248,0,0,0,0,0,0,0,0,0,0,0
0,0,102,2052,-119,599,-33,0,231,0,0,0,0,0,0,0,0,0,0,0
0,0,101,2047,-109,600,-31,2,239,0,0,0,0,0,0,0,0,0,0,0
0,0,93,2048,-119,600,-33,3,222,0,0,0,0,0,0,0,0,0,0,0
0,0,99,2049,-117,600,-32,2,231,0,0,0,0,0,0,0,0,0,0,0
0,0,93,2047,-111,600,-33,1,226,0,0,0,0,0,0,0,0,0,0,0
0,0,103,2050,-119,600,-32,1,233,0,0,0,0,0,0,0,0,0,0,0
0,0,95,2050,-116,600,-33,1,227,0,0,0,0,0,0,0,0,0,0,0
0,0,103,2046,-107,601,-31,2,243,0,0,0,0,0,0,0,0,0,0,0
0,0,107,2048,-114,602,-32,0,241,0,0,0,0,0,0,0,0,0,0,0
0,0,106,2050,-114,603,-32,2,245,0,0,0,0,0,0,0,0,0,0,0
0,0,99,2043,-110,600,-32,2,231,0,0,0,0,0,0,0,0,0,0,0
0,0,100,2043,-109,599,-32,1,231,0,0,0,0,0,0,0,0,0,0,0
0,0,96,2047,-114,600,-32,0,226,0,0,0,0,0,0,0,0,0,0,0
0,0,97,2044,-115,600,-31,1,225,0,0,0,0,0,0,0,0,0,0,0
0,0,96,2051,-119,601,-32,2,229,0,0,0,0,0,0,0,0,0,0,0
0,0,97,2045,-113,598,-31,1,226,0,0,0,0,0,0,0,0,0,0,0
0,0,102,2044,-115,601,-32,1,230,0,0,0,0,0,0,0,0,0,0,0
0,0,107,2047,-113,600,-32,1,239,0,0,0,0,0,0,0,0,0,0,0
0,0,94,2054,-105,601,-32,0,242,0,0,0,0,0,0,0,0,0,0,0
0,0,100,2050,-115,601,-31,0,235,0,0,0,0,0,0,0,0,0,0,0
0,0,102,2053,-115,601,-32,3,242,0,0,0,0,0,0,0,0,0,0,0
0,0,103,2050,-105,601,-31,2,250,0,0,0,0,0,0,0,0,0,0,0
0,0,103,2044,-109,600,-33,2,236,0,0,0,0,0,0,0,0,0,0,0
0,0,102,2042,-118,600,-31,2,226,0,0,0,0,0,0,0,0,0,0,0
0,0,102,2045,-121,601,-31,2,227,0,0,0,0,0,0,0,0,0,0,0
0,0,101,2047,-118,599,-33,2,227,0,0,0,0,0,0,0,0,0,0,0
0,0,100,2047,-116,600,-30,2,232,0,0,0,0,0,0,0,0,0,0,0
0,0,98,2045,-114,601,-30,2,231,0,0,0,0,0,0,0,0,0,0,0
0,0,95,2042,-106,602,-33,1,230,0,0,0,0,0,0,0,0,0,0,0
0,0,95,2043,-110,601,-31,1,228,0,0,0,0,0,0,0,0,0,0,0
0,0,99,2041,-112,600,-33,1,225,0,0,0,0,0,0,0,0,0,0,0
0,0,98,2051,-113,599,-32,1,234,0,0,0,0,0,0,0,0,0,0,0
0,0,101,2042,-111,599,-31,0,229,0,0,0,0,0,0,0,0,0,0,0
0,0,99,2054,-116,601,-32,0,236,0,0,0,0,0,0,0,0,0,0,0
0,0,103,2047,-112,601,-33,1,236,0,0,0,0,0,0,0,0,0,0,0
0,0,107,2049,-110,599,-31,2,246,0,0,0,0,0,0,0,0,0,0,0
0,0,96,2054,-117,599,-31,2,233,0,0,0,0,0,0,0,0,0,0,0
0,0,99,2050,-123,601,-31,0,226,0,0,0,0,0,0,0,0,0,0,0
0,0,95,2047,-127,600,-30,0,214,0,0,0,0,0,0,0,0,0,0,0
0,0,98,2053,-110,600,-33,2,240,0,0,0,0,0,0,0,0,0,0,0
0,0,97,2050,-118,600,-32,0,227,0,0,0,0,0,0,0,0,0,0,0
0,0,107,2054,-103,600,-31,1,2,0,0,0,0,0,0,0,0,0,0,0
0,0,97,2046,-111,601,-31,1,232,0,0,0,0,0,0,0,0,0,0,0
0,0,100,2060,-122,600,-31,0,237,0,0,0,0,0,0,0,0,0,0,0
0,0,99,2050,-115,599,-32,3,234,0,0,0,0,0,0,0,0,0,0,0
0,0,100,2050,-117,600,-31,2,234,0,0,0,0,0,0,0,0,0,0,0
0,0,106,2053,-107,599,-31,2,252,0,0,0,0,0,0,0,0,0,0,0
0,0,105,2049,-116,599,-31,1,237,0,0,0,0,0,0,0,0,0,0,0
0,0,101,2047,-117,599,-32,3,230,0,0,0,0,0,0,0,0,0,0,0
0,0,97,2054,-120,600,-32,1,230,0,0,0,0,0,0,0,0,0,0,0
0,0,97,2048,-117,598,-31,1,226,0,0,0,0,0,0,0,0,0,0,0
0,0,106,2048,-107,600,-32,1,246,0,0,0,0,0,0,0,0,0,0,0
0,0,105,2047,-123,599,-32,1,226,0,0,0,0,0,0,0,0,0,0,0
0,0,95,2044,-118,601,-32,2,221,0,0,0,0,0,0,0,0,0,0,0
0,0,105,2046,-111,602,-32,1,240,0,0,0,0,0,0,0,0,0,0,0
0,0,99,2049,-119,602,-31,2,232,0,0,0,0,0,0,0,0,0,0,0
0,0,101,2046,-118,601,-33,2,228,0,0,0,0,0,0,0,0,0,0,0
0,0,102,2050,-112,600,-32,2,240,0,0,0,0,0,0,0,0,0,0,0
0,0,108,2042,-117,601,-32,0,231,0,0,0,0,0,0,0,0,0,0,0
0,0,108,2048,-111,599,-30,0,244,0,0,0,0,0,0,0,0,0,0,0
0,0,102,2054,-108,599,-31,1,247,0,0,0,0,0,0,0,0,0,0,0
0,0,97,2051,-111,602,-32,0,237,0,0,0,0,0,0,0,0,0,0,0
0,0,93,2051,-115,599,-32,2,228,0,0,0,0,0,0,0,0,0,0,0
0,0,103,2054,-115,599,-32,2,241,0,0,0,0,0,0,0,0,0,0,0
0,0,101,2051,-118,602,-32,0,234,0,0,0,0,0,0,0,0,0,0,0
0,0,107,2050,-125,600,-32,1,231,0,0,0,0,0,0,0,0,0,0,0
0,0,102,2052,-104,601,-31,0,250,0,0,0,0,0,0,0,0,0,0,0
0,0,93,2043,-122,599,-30,1,213,0,0,0,0,0,0,0,0,0,0,0
0,0,103,2044,-113,600,-31,0,232,0,0,0,0,0,0,0,0,0,0,0
0,0,110,2043,-121,600,-30,4,235,0,0,0,0,0,0,0,0,0,0,0
0,0,103,2045,-112,600,-32,2,235,0,0,0,0,0,0,0,0,0,0,0
0,0,98,2044,-123,599,-33,2,216,0,0,0,0,0,0,0,0,0,0,0
0,0,96,2054,-108,597,-32,2,239,0,0,0,0,0,0,0,0,0,0,0
0,0,101,2050,-120,601,-32,1,231,0,0,0,0,0,0,0,0,0,0,0
0,0,99,2055,-132,600,-32,1,221,0,0,0,0,0,0,0,0,0,0,0
0,0,99,2053,-119,599,-31,2,233,0,0,0,0,0,0,0,0,0,0,0
0,0,100,2050,-122,600,-31,1,228,0,0,0,0,0,0,0,0,0,0,0
0,0,98,2048,-120,598,-35,2,221,0,0,0,0,0,0,0,0,0,0,0
0,0,101,2052,-120,599,-34,1,229,0,0,0,0,0,0,0,0,0,0,0
0,0,98,2046,-111,602,-31,1,234,0,0,0,0,0,0,0,0,0,0,0
0,0,104,2049,-109,600,-32,2,244,0,0,0,0,0,0,0,0,0,0,0
0,0,103,2045,-115,600,-32,3,233,0,0,0,0,0,0,0,0,0,0,0
0,0,94,2051,-116,602,-32,2,231,0,0,0,0,0,0,0,0,0,0,0
0,0,102,2052,-112,600,-32,2,242,0,0,0,0,0,0,0,0,0,0,0
0,0,99,2045,-106,599,-32,1,235,0,0,0,0,0,0,0,0,0,0,0
0,0,97,2049,-108,600,-32,2,238,0,0,0,0,0,0,0,0,0,0,0
0,0,96,2047,-108,600,-32,0,232,0,0,0,0,0,0,0,0,0,0,0
0,0,98,2044,-112,599,-31,0,227,0,0,0,0,0,0,0,0,0,0,0
0,0,95,2045,-116,599,-31,2,223,0,0,0,0,0,0,0,0,0,0,0
0,0,107,2047,-118,598,-31,2,234,0,0,0,0,0,0,0,0,0,0,0
0,0,100,2045,-109,601,-30,1,237,0,0,0,0,0,0,0,0,0,0,0
0,0,111,2046,-117,601,-33,1,238,0,0,0,0,0,0,0,0,0,0,0
0,0,105,2045,-102,602,-31,1,249,0,0,0,0,0,0,0,0,0,0,0
0,0,98,2046,-122,601,-32,1,221,0,0,0,0,0,0,0,0,0,0,0
0,0,101,2050,-114,601,-32,2,238,0,0,0,0,0,0,0,0,0,0,0
0,0,92,2049,-116,601,-31,3,228,0,0,0,0,0,0,0,0,0,0,0
0,0,102,2049,-111,600,-30,2,242,0,0,0,0,0,0,0,0,0,0,0
0,0,106,2044,-105,599,-32,0,241,0,0,0,0,0,0,0,0,0,0,0
0,0,102,2057,-102,601,-32,0,0,0,0,0,0,0,0,0,0,0,0,0
0,0,89,2052,-114,601,-31,0,227,0,0,0,0,0,0,0,0,0,0,0
0,0,100,2048,-117,600,-31,4,234,0,0,0,0,0,0,0,0,0,0,0
0,0,100,2052,-104,600,-33,3,248,0,0,0,0,0,0,0,0,0,0,0
0,0,99,2053,-108,601,-34,0,241,0,0,0,0,0,0,0,0,0,0,0
0,0,100,2045,-122,600,-31,3,224,0,0,0,0,0,0,0,0,0,0,0
0,0,100,2056,-115,599,-31,1,240,0,0,0,0,0,0,0,0,0,0,0
0,0,100,2049,-111,601,-31,2,240,0,0,0,0,0,0,0,0,0,0,0
0,0,97,2048,-109,600,-33,0,233,0,0,0,0,0,0,0,0,0,0,0
0,0,94,2051,-114,599,-31,2,231,0,0,0,0,0,0,0,0,0,0,0
0,0,97,2044,-113,599,-30,0,226,0,0,0,0,0,0,0,0,0,0,0
0,0,100,2049,-114,600,-33,1,233,0,0,0,0,0,0,0,0,0,0,0
0,0,99,2048,-109,601,-32,0,237,0,0,0,0,0,0,0,0,0,0,0
0,0,98,2049,-118,599,-30,2,230,0,0,0,0,0,0,0,0,0,0,0
0,0,109,2045,-110,601,-33,0,241,0,0,0,0,0,0,0,0,0,0,0
0,0,107,2054,-124,599,-31,3,238,0,0,0,0,0,0,0,0,0,0,0
0,0,104,2054,-114,599,-31,2,244,0,0,0,0,0,0,0,0,0,0,0
0,0,103,2048,-108,600,-30,3,246,0,0,0,0,0,0,0,0,0,0,0
0,0,107,2048,-110,599,-32,1,243,0,0,0,0,0,0,0,0,0,0,0
0,0,101,2048,-112,598,-32,1,234,0,0,0,0,0,0,0,0,0,0,0
0,0,107,2046,-112,598,-32,1,237,0,0,0,0,0,0,0,0,0,0,0
0,0,102,2045,-120,600,-31,2,227,0,0,0,0,0,0,0,0,0,0,0
0,0,98,2045,-115,603,-34,2,228,0,0,0,0,0,0,0,0,0,0,0
0,0,97,2048,-107,600,-32,-1,234,0,0,0,0,0,0,0,0,0,0,0
0,0,104,2051,-104,600,-32,2,251,0,0,0,0,0,0,0,0,0,0,0
0,0,100,2053,-120,599,-31,1,232,0,0,0,0,0,0,0,0,0,0,0
0,0,106,2050,-119,599,-32,1,235,0,0,0,0,0,0,0,0,0,0,0
0,0,103,2049,-112,600,-31,2,241,0,0,0,0,0,0,0,0,0,0,0
0,0,107,2052,-115,600,-31,1,244,0,0,0,0,0,0,0,0,0,0,0
0,0,103,2052,-113,601,-30,1,244,0,0,0,0,0,0,0,0,0,0,0
0,0,96,2049,-106,598,-31,2,238,0,0,0,0,0,0,0,0,0,0,0
0,0,99,2049,-108,600,-31,0,239,0,0,0,0,0,0,0,0,0,0,0
0,0,104,2041,-109,599,-31,0,233,0,0,0,0,0,0,0,0,0,0,0
0,0,106,2052,-116,598,-33,1,238,0,0,0,0,0,0,0,0,0,0,0
0,0,94,2053,-112,599,-34,-1,228,0,0,0,0,0,0,0,0,0,0,0
0,0,96,2048,-112,600,-32,1,231,0,0,0,0,0,0,0,0,0,0,0
0,0,101,2056,-103,599,-32,2,253,0,0,0,0,0,0,0,0,0,0,0
0,0,108,2049,-115,602,-30,1,245,0,0,0,0,0,0,0,0,0,0,0
0,0,103,2053,-108,600,-30,2,250,0,0,0,0,0,0,0,0,0,0,0
0,0,98,2043,-105,602,-30,-1,235,0,0,0,0,0,0,0,0,0,0,0
0,0,103,2043,-109,600,-30,1,237,0,0,0,0,0,0,0,0,0,0,0
0,0,101,2045,-116,600,-31,2,230,0,0,0,0,0,0,0,0,0,0,0
0,0,103,2049,-118,601,-32,2,235,0,0,0,0,0,0,0,0,0,0,0
0,0,94,2048,-121,599,-31,1,220,0,0,0,0,0,0,0,0,0,0,0
0,0,99,2046,-104,598,-32,1,237,0,0,0,0,0,0,0,0,0,0,0
0,0,97,2055,-99,599,-31,2,253,0,0,0,0,0,0,0,0,0,0,0
0,0,102,2054,-111,600,-32,2,245,0,0,0,0,0,0,0,0,0,0,0
0,0,104,2052,-116,599,-31,2,240,0,0,0,0,0,0,0,0,0,0,0
0,0,96,2044,-110,599,-32,3,229,0,0,0,0,0,0,0,0,0,0,0
0,0,101,2044,-110,599,-32,1,232,0,0,0,0,0,0,0,0,0,0,0
0,0,97,2041,-113,600,-32,0,222,0,0,0,0,0,0,0,0,0,0,0
0,0,103,2045,-104,599,-34,1,239,0,0,0,0,0,0,0,0,0,0,0
0,0,100,2048,-108,600,-32,2,240,0,0,0,0,0,0,0,0,0,0,0
0,0,99,2056,-107,600,-34,1,245,0,0,0,0,0,0,0,0,0,0,0
0,0,101,2041,-118,600,-32,2,223,0,0,0,0,0,0,0,0,0,0,0
0,0,100,2036,-117,601,-32,0,217,0,0,0,0,0,0,0,0,0,0,0
0,0,93,2050,-125,600,-31,2,219,0,0,0,0,0,0,0,0,0,0,0
0,0,95,2051,-120,602,-33,0,225,0,0,0,0,0,0,0,0,0,0,0
0,0,97,2050,-112,600,-32,-1,231,0,0,0,0,0,0,0,0,0,0,0
0,0,96,2048,-113,601,-33,1,230,0,0,0,0,0,0,0,0,0,0,0
0,0,102,2053,-119,600,-32,1,235,0,0,0,0,0,0,0,0,0,0,0
0,0,105,2042,-116,599,-31,0,228,0,0,0,0,0,0,0,0,0,0,0
0,0,100,2049,-112,601,-31,0,237,0,0,0,0,0,0,0,0,0,0,0
0,0,101,2047,-112,600,-33,0,232,0,0,0,0,0,0,0,0,0,0,0
0,0,105,2048,-116,600,-32,1,236,0,0,0,0,0,0,0,0,0,0,0
0,0,97,2055,-111,599,-30,1,241,0,0,0,0,0,0,0,0,0,0,0
0,0,97,2043,-118,599,-31,1,220,0,0,0,0,0,0,0,0,0,0,0
0,0,99,2050,-113,599,-31,2,236,0,0,0,0,0,0,0,0,0,0,0
0,0,93,2056,-117,599,-30,2,233,0,0,0,0,0,0,0,0,0,0,0
0,0,101,2049,-116,600,-32,0,232,0,0,0,0,0,0,0,0,0,0,0
0,0,103,2044,-111,600,-31,1,235,0,0,0,0,0,0,0,0,0,0,0
0,0,98,2050,-114,600,-32,-1,230,0,0,0,0,0,0,0,0,0,0,0
0,0,104,2046,-124,601,-33,3,226,0,0,0,0,0,0,0,0,0,0,0
0,0,106,2052,-111,600,-32,1,246,0,0,0,0,0,0,0,0,0,0,0
0,0,98,2046,-101,600,-31,0,241,0,0,0,0,0,0,0,0,0,0,0
0,0,100,2047,-112,599,-31,3,235,0,0,0,0,0,0,0,0,0,0,0
0,0,98,2044,-117,599,-31,1,223,0,0,0,0,0,0,0,0,0,0,0
0,0,100,2046,-121,599,-31,1,223,0,0,0,0,0,0,0,0,0,0,0
0,0,98,2046,-117,600,-31,-1,223,0,0,0,0,0,0,0,0,0,0,0
0,0,102,2047,-113,600,-31,0,234,0,0,0,0,0,0,0,0,0,0,0
0,0,103,2047,-108,602,-32,3,244,0,0,0,0,0,0,0,0,0,0,0
0,0,105,2047,-110,601,-32,2,242,0,0,0,0,0,0,0,0,0,0,0
0,0,100,2047,-118,601,-31,1,229,0,0,0,0,0,0,0,0,0,0,0
0,0,97,2050,-110,600,-32,1,236,0,0,0,0,0,0,0,0,0,0,0
0,0,103,2046,-126,600,-31,2,223,0,0,0,0,0,0,0,0,0,0,0
0,0,111,2049,-116,598,-31,2,243,0,0,0,0,0,0,0,0,0,0,0
0,0,117,2052,-104,600,-30,3,12,0,0,0,0,0,0,0,0,0,0,0
0,0,95,2036,-111,600,-32,0,217,0,0,0,0,0,0,0,0,0,0,0
0,0,99,2047,-115,600,-32,1,229,0,0,0,0,0,0,0,0,0,0,0
0,0,101,2040,-114,600,-31,3,228,0,0,0,0,0,0,0,0,0,0,0
0,0,103,2044,-116,601,-31,2,232,0,0,0,0,0,0,0,0,0,0,0
0,0,101,2056,-120,599,-32,2,236,0,0,0,0,0,0,0,0,0,0,0
0,0,106,2044,-117,601,-31,1,233,0,0,0,0,0,0,0,0,0,0,0
0,0,100,2042,-105,600,-31,1,236,0,0,0,0,0,0,0,0,0,0,0
0,0,101,2046,-111,598,-32,1,232,0,0,0,0,0,0,0,0,0,0,0
0,0,104,2047,-109,600,-32,1,240,0,0,0,0,0,0,0,0,0,0,0
0,0,93,2044,-102,599,-32,1,232,0,0,0,0,0,0,0,0,0,0,0
0,0,102,2052,-112,600,-30,3,245,0,0,0,0,0,0,0,0,0,0,0
0,0,103,2047,-119,600,-32,0,228,0,0,0,0,0,0,0,0,0,0,0
0,0,97,2047,-111,600,-32,0,230,0,0,0,0,0,0,0,0,0,0,0
0,0,96,2051,-118,601,-31,2,231,0,0,0,0,0,0,0,0,0,0,0
0,0,106,2057,-120,600,-32,0,241,0,0,0,0,0,0,0,0,0,0,0
0,0,104,2048,-110,599,-31,2,242,0,0,0,0,0,0,0,0,0,0,0
0,0,102,2051,-117,599,-30,1,236,0,0,0,0,0,0,0,0,0,0,0
0,0,102,2053,-98,600,-31,1,1,0,0,0,0,0,0,0,0,0,0,0
0,0,92,2055,-115,600,-32,3,233,0,0,0,0,0,0,0,0,0,0,0
0,0,97,2053,-104,600,-33,2,245,0,0,0,0,0,0,0,0,0,0,0
0,0,99,2045,-118,600,-34,2,223,0,0,0,0,0,0,0,0,0,0,0
0,0,103,2046,-109,601,-33,2,239,0,0,0,0,0,0,0,0,0,0,0
0,0,101,2047,-112,603,-33,1,236,0,0,0,0,0,0,0,0,0,0,0
0,0,103,2050,-115,600,-31,1,238,0,0,0,0,0,0,0,0,0,0,0
0,0,107,2044,-101,599,-32,2,248,0,0,0,0,0,0,0,0,0,0,0
0,0,108,2049,-121,599,-32,2,235,0,0,0,0,0,0,0,0,0,0,0
0,0,101,2049,-110,600,-32,-1,236,0,0,0,0,0,0,0,0,0,0,0
0,0,99,2048,-111,599,-33,2,234,0,0,0,0,0,0,0,0,0,0,0
0,0,93,2049,-127,598,-32,-1,209,0,0,0,0,0,0,0,0,0,0,0
0,0,97,2051,-116,600,-31,2,233,0,0,0,0,0,0,0,0,0,0,0
0,0,109,2050,-109,600,-33,1,248,0,0,0,0,0,0,0,0,0,0,0
0,0,104,2047,-106,600,-33,1,242,0,0,0,0,0,0,0,0,0,0,0
0,0,97,2052,-109,599,-31,0,238,0,0,0,0,0,0,0,0,0,0,0
0,0,101,2049,-125,600,-33,1,223,0,0,0,0,0,0,0,0,0,0,0
0,0,109,2052,-117,600,-32,0,242,0,0,0,0,0,0,0,0,0,0,0
0,0,99,2052,-120,600,-30,1,232,0,0,0,0,0,0,0,0,0,0,0
0,0,99,2053,-101,599,-32,1,249,0,0,0,0,0,0,0,0,0,0,0
0,0,97,2039,-90,599,-32,2,244,0,0,0,0,0,0,0,0,0,0,0
0,0,102,2042,-125,599,-31,3,219,0,0,0,0,0,0,0,0,0,0,0
0,0,103,2045,-115,601,-33,1,231,0,0,0,0,0,0,0,0,0,0,0
0,0,94,2053,-114,601,-32,0,232,0,0,0,0,0,0,0,0,0,0,0
0,0,102,2046,-116,600,-34,-1,225,0,0,0,0,0,0,0,0,0,0,0
0,0,105,2046,-114,602,-30,0,238,0,0,0,0,0,0,0,0,0,0,0
0,0,99,2048,-107,599,-32,1,238,0,0,0,0,0,0,0,0,0,0,0
0,0,102,2044,-115,600,-31,3,232,0,0,0,0,0,0,0,0,0,0,0
0,0,103,2044,-123,599,-31,0,221,0,0,0,0,0,0,0,0,0,0,0
0,0,101,2046,-111,599,-33,3,234,0,0,0,0,0,0,0,0,0,0,0
0,0,100,2046,-112,599,-32,3,233,0,0,0,0,0,0,0,0,0,0,0
0,0,105,2048,-120,600,-32,1,232,0,0,0,0,0,0,0,0,0,0,0
0,0,103,2044,-113,600,-31,1,233,0,0,0,0,0,0,0,0,0,0,0
0,0,105,2055,-113,600,-33,1,245,0,0,0,0,0,0,0,0,0,0,0
0,0,114,2044,-119,599,-31,2,238,0,0,0,0,0,0,0,0,0,0,0
0,0,107,2052,-121,599,-31,3,239,0,0,0,0,0,0,0,0,0,0,0
0,0,100,2050,-105,599,-31,0,243,0,0,0,0,0,0,0,0,0,0,0
0,0,100,2052,-115,599,-33,1,234,0,0,0,0,0,0,0,0,0,0,0
0,0,98,2056,-113,601,-32,1,241,0,0,0,0,0,0,0,0,0,0,0
0,0,105,2054,-105,601,-33,0,252,0,0,0,0,0,0,0,0,0,0,0
0,0,104,2046,-112,601,-31,1,238,0,0,0,0,0,0,0,0,0,0,0
0,0,100,2045,-117,599,-30,1,227,0,0,0,0,0,0,0,0,0,0,0
0,0,108,2049,-124,601,-32,2,234,0,0,0,0,0,0,0,0,0,0,0
0,0,100,2050,-112,600,-30,2,240,0,0,0,0,0,0,0,0,0,0,0
0,0,102,2047,-103,600,-30,2,247,0,0,0,0,0,0,0,0,0,0,0
0,0,102,2046,-111,600,-31,1,236,0,0,0,0,0,0,0,0,0,0,0
0,0,100,2044,-112,601,-33,0,229,0,0,0,0,0,0,0,0,0,0,0
0,0,100,2052,-115,600,-31,1,237,0,0,0,0,0,0,0,0,0,0,0
0,0,96,2046,-113,602,-31,1,230,0,0,0,0,0,0,0,0,0,0,0
0,0,96,2045,-116,599,-32,1,222,0,0,0,0,0,0,0,0,0,0,0
0,0,100,2043,-111,601,-33,2,231,0,0,0,0,0,0,0,0,0,0,0
0,0,102,2046,-110,599,-32,2,236,0,0,0,0,0,0,0,0,0,0,0
0,0,99,2051,-102,600,-31,0,247,0,0,0,0,0,0,0,0,0,0,0
0,0,99,2053,-113,602,-30,1,242,0,0,0,0,0,0,0,0,0,0,0
0,0,100,2050,-103,599,-30,3,249,0,0,0,0,0,0,0,0,0,0,0
0,0,99,2056,-112,600,-31,2,244,0,0,0,0,0,0,0,0,0,0,0
0,0,91,2045,-106,601,-32,1,229,0,0,0,0,0,0,0,0,0,0,0
0,0,98,2038,-104,600,-31,0,230,0,0,0,0,0,0,0,0,0,0,0
0,0,96,2048,-94,599,-31,0,248,0,0,0,0,0,0,0,0,0,0,0
0,0,106,2048,-113,601,-31,1,242,0,0,0,0,0,0,0,0,0,0,0
0,0,98,2052,-111,600,-33,2,238,0,0,0,0,0,0,0,0,0,0,0
0,0,100,2046,-110,599,-31,2,235,0,0,0,0,0,0,0,0,0,0,0
0,0,104,2040,-121,599,-33,2,220,0,0,0,0,0,0,0,0,0,0,0
0,0,108,2041,-107,601,-32,2,242,0,0,0,0,0,0,0,0,0,0,0
0,0,99,2039,-111,600,-33,-1,221,0,0,0,0,0,0,0,0,0,0,0
0,0,100,2041,-118,600,-32,2,222,0,0,0,0,0,0,0,0,0,0,0
0,0,100,2043,-104,598,-32,1,235,0,0,0,0,0,0,0,0,0,0,0
0,0,106,2053,-115,602,-32,1,245,0,0,0,0,0,0,0,0,0,0,0
0,0,97,2054,-121,600,-32,2,230,0,0,0,0,0,0,0,0,0,0,0
0,0,99,2045,-108,599,-33,2,233,0,0,0,0,0,0,0,0,0,0,0
0,0,110,2045,-117,600,-32,3,238,0,0,0,0,0,0,0,0,0,0,0
0,0,101,2048,-115,598,-30,3,235,0,0,0,0,0,0,0,0,0,0,0
0,0,98,2049,-119,599,-32,1,226,0,0,0,0,0,0,0,0,0,0,0
0,0,98,2048,-111,599,-32,2,234,0,0,0,0,0,0,0,0,0,0,0
0,0,99,2048,-118,601,-33,1,228,0,0,0,0,0,0,0,0,0,0,0
0,0,94,2050,-117,601,-33,2,227,0,0,0,0,0,0,0,0,0,0,0
0,0,95,2053,-112,600,-33,2,235,0,0,0,0,0,0,0,0,0,0,0
0,0,102,2053,-119,601,-33,3,237,0,0,0,0,0,0,0,0,0,0,0
0,0,112,2051,-130,602,-32,2,235,0,0,0,0,0,0,0,0,0,0,0
0,0,102,2056,-125,599,-31,2,233,0,0,0,0,0,0,0,0,0,0,0
0,0,106,2056,-111,600,-31,1,251,0,0,0,0,0,0,0,0,0,0,0
0,0,95,2047,-115,599,-32,2,225,0,0,0,0,0,0,0,0,0,0,0
0,0,97,2050,-101,600,-30,2,248,0,0,0,0,0,0,0,0,0,0,0
0,0,97,2046,-109,598,-31,-1,228,0,0,0,0,0,0,0,0,0,0,0
0,0,104,2047,-120,599,-31,2,230,0,0,0,0,0,0,0,0,0,0,0
0,0,102,2052,-114,599,-32,1,238,0,0,0,0,0,0,0,0,0,0,0
0,0,105,2050,-116,597,-32,2,236,0,0,0,0,0,0,0,0,0,0,0
0,0,108,2042,-108,600,-30,1,242,0,0,0,0,0,0,0,0,0,0,0
0,0,104,2042,-111,600,-32,1,233,0,0,0,0,0,0,0,0,0,0,0
0,0,102,2048,-113,601,-33,0,235,0,0,0,0,0,0,0,0,0,0,0
0,0,95,2044,-111,598,-32,1,224,0,0,0,0,0,0,0,0,0,0,0
0,0,99,2053,-117,598,-31,1,233,0,0,0,0,0,0,0,0,0,0,0
0,0,106,2047,-119,599,-31,2,233,0,0,0,0,0,0,0,0,0,0,0
0,0,104,2049,-112,601,-32,0,240,0,0,0,0,0,0,0,0,0,0,0
0,0,99,2044,-108,601,-32,1,234,0,0,0,0,0,0,0,0,0,0,0
0,0,98,2050,-110,600,-32,2,238,0,0,0,0,0,0,0,0,0,0,0
0,0,99,2041,-115,600,-31,2,225,0,0,0,0,0,0,0,0,0,0,0
0,0,104,2048,-117,600,-31,2,236,0,0,0,0,0,0,0,0,0,0,0
0,0,102,2051,-104,600,-32,2,249,0,0,0,0,0,0,0,0,0,0,0
0,0,94,2045,-106,600,-31,3,234,0,0,0,0,0,0,0,0,0,0,0
0,0,104,2041,-114,601,-31,1,231,0,0,0,0,0,0,0,0,0,0,0
0,0,94,2044,-105,601,-32,2,233,0,0,0,0,0,0,0,0,0,0,0
0,0,99,2047,-113,599,-30,0,231,0,0,0,0,0,0,0,0,0,0,0
0,0,100,2043,-110,600,-32,0,230,0,0,0,0,0,0,0,0,0,0,0
0,0,106,2049,-121,599,-31,1,233,0,0,0,0,0,0,0,0,0,0,0
0,0,103,2046,-110,599,-32,1,236,0,0,0,0,0,0,0,0,0,0,0
0,0,102,2043,-104,600,-30,1,241,0,0,0,0,0,0,0,0,0,0,0
0,0,95,2048,-114,601,-32,1,229,0,0,0,0,0,0,0,0,0,0,0
0,0,104,2043,-110,599,-33,2,234,0,0,0,0,0,0,0,0,0,0,0
0,0,101,2051,-107,599,-31,2,245,0,0,0,0,0,0,0,0,0,0,0
0,0,99,2035,-112,601,-31,1,222,0,0,0,0,0,0,0,0,0,0,0
0,0,100,2044,-121,598,-31,2,221,0,0,0,0,0,0,0,0,0,0,0
0,0,104,2046,-112,601,-32,0,236,0,0,0,0,0,0,0,0,0,0,0
0,0,97,2052,-105,600,-33,0,241,0,0,0,0,0,0,0,0,0,0,0
0,0,97,2045,-114,598,-32,0,223,0,0,0,0,0,0,0,0,0,0,0
0,0,98,2050,-123,598,-31,1,223,0,0,0,0,0,0,0,0,0,0,0
0,0,103,2047,-105,597,-31,4,244,0,0,0,0,0,0,0,0,0,0,0
0,0,98,2047,-112,599,-33,2,230,0,0,0,0,0,0,0,0,0,0,0
0,0,102,2048,-106,599,-33,2,242,0,0,0,0,0,0,0,0,0,0,0
0,0,103,2045,-123,600,-31,1,224,0,0,0,0,0,0,0,0,0,0,0
0,0,104,2052,-115,599,-30,1,241,0,0,0,0,0,0,0,0,0,0,0
0,0,102,2053,-106,599,-31,2,249,0,0,0,0,0,0,0,0,0,0,0
0,0,99,2056,-108,599,-31,2,247,0,0,0,0,0,0,0,0,0,0,0
0,0,102,2054,-119,600,-31,2,238,0,0,0,0,0,0,0,0,0,0,0
0,0,102,2045,-123,600,-32,1,222,0,0,0,0,0,0,0,0,0,0,0
0,0,97,2049,-110,600,-33,3,236,0,0,0,0,0,0,0,0,0,0,0
0,0,90,2044,-111,600,-33,1,220,0,0,0,0,0,0,0,0,0,0,0
0,0,97,2039,-117,601,-32,2,219,0,0,0,0,0,0,0,0,0,0,0
0,0,97,2049,-109,599,-30,2,238,0,0,0,0,0,0,0,0,0,0,0
0,0,102,2054,-112,599,-30,2,245,0,0,0,0,0,0,0,0,0,0,0
0,0,109,2045,-104,600,-31,2,250,0,0,0,0,0,0,0,0,0,0,0
0,0,106,2046,-119,599,-33,3,231,0,0,0,0,0,0,0,0,0,0,0
0,0,102,2047,-115,599,-32,3,233,0,0,0,0,0,0,0,0,0,0,0
0,0,104,2048,-114,600,-32,0,236,0,0,0,0,0,0,0,0,0,0,0
0,0,105,2046,-113,600,-32,1,236,0,0,0,0,0,0,0,0,0,0,0
0,0,103,2049,-114,601,-31,1,239,0,0,0,0,0,0,0,0,0,0,0
0,0,104,2051,-110,600,-32,0,243,0,0,0,0,0,0,0,0,0,0,0
0,0,101,2054,-114,600,-31,2,242,0,0,0,0,0,0,0,0,0,0,0
0,0,101,2049,-112,600,-32,2,238,0,0,0,0,0,0,0,0,0,0,0
0,0,103,2047,-114,598,-31,0,232,0,0,0,0,0,0,0,0,0,0,0
0,0,94,2053,-110,601,-32,0,236,0,0,0,0,0,0,0,0,0,0,0
0,0,99,2049,-109,600,-32,1,238,0,0,0,0,0,0,0,0,0,0,0
0,0,101,2051,-114,600,-32,1,237,0,0,0,0,0,0,0,0,0,0,0
0,0,98,2055,-106,601,-32,0,246,0,0,0,0,0,0,0,0,0,0,0
0,0,96,2057,-109,600,-32,3,245,0,0,0,0,0,0,0,0,0,0,0
0,0,100,2045,-107,600,-31,1,237,0,0,0,0,0,0,0,0,0,0,0
0,0,100,2053,-109,602,-30,1,247,0,0,0,0,0,0,0,0,0,0,0
0,0,106,2050,-116,600,-30,1,241,0,0,0,0,0,0,0,0,0,0,0
0,0,106,2044,-112,600,-33,1,235,0,0,0,0,0,0,0,0,0,0,0
0,0,105,2046,-102,601,-32,1,248,0,0,0,0,0,0,0,0,0,0,0
0,0,98,2048,-106,600,-31,2,241,0,0,0,0,0,0,0,0,0,0,0
0,0,100,2049,-107,600,-33,3,242,0,0,0,0,0,0,0,0,0,0,0
0,0,107,2052,-118,600,-32,1,240,0,0,0,0,0,0,0,0,0,0,0
0,0,102,2050,-111,600,-32,1,240,0,0,0,0,0,0,0,0,0,0,0
0,0,98,2046,-115,600,-31,2,229,0,0,0,0,0,0,0,0,0,0,0
0,0,101,2042,-101,599,-30,1,241,0,0,0,0,0,0,0,0,0,0,0
0,0,102,2055,-101,599,-31,0,254,0,0,0,0,0,0,0,0,0,0,0
0,0,97,2046,-106,601,-31,0,236,0,0,0,0,0,0,0,0,0,0,0
0,0,93,2052,-112,601,-31,1,234,0,0,0,0,0,0,0,0,0,0,0
0,0,96,2054,-108,602,-32,-1,240,0,0,0,0,0,0,0,0,0,0,0
0,0,96,2053,-107,599,-31,0,240,0,0,0,0,0,0,0,0,0,0,0
0,0,94,2048,-109,600,-31,3,235,0,0,0,0,0,0,0,0,0,0,0
0,0,99,2049,-105,601,-32,1,243,0,0,0,0,0,0,0,0,0,0,0
0,0,105,2044,-120,600,-32,1,227,0,0,0,0,0,0,0,0,0,0,0
0,0,103,2060,-111,601,-31,1,253,0,0,0,0,0,0,0,0,0,0,0
0,0,103,2044,-118,600,-30,1,229,0,0,0,0,0,0,0,0,0,0,0
0,0,104,2047,-114,599,-33,1,233,0,0,0,0,0,0,0,0,0,0,0
0,0,106,2046,-106,600,-32,2,245,0,0,0,0,0,0,0,0,0,0,0
0,0,105,2049,-105,600,-31,2,250,0,0,0,0,0,0,0,0,0,0,0
0,0,99,2049,-102,601,-32,1,246,0,0,0,0,0,0,0,0,0,0,0
0,0,99,2045,-114,601,-32,3,231,0,0,0,0,0,0,0,0,0,0,0
0,0,95,2050,-107,601,-31,2,240,0,0,0,0,0,0,0,0,0,0,0
0,0,107,2050,-112,599,-31,2,245,0,0,0,0,0,0,0,0,0,0,0
0,0,102,2044,-115,601,-31,2,232,0,0,0,0,0,0,0,0,0,0,0
0,0,103,2057,-118,601,-32,0,241,0,0,0,0,0,0,0,0,0,0,0
0,0,103,2049,-118,601,-30,3,238,0,0,0,0,0,0,0,0,0,0,0
0,0,104,2044,-115,600,-32,2,232,0,0,0,0,0,0,0,0,0,0,0
0,0,107,2047,-106,601,-32,3,249,0,0,0,0,0,0,0,0,0,0,0
0,0,99,2050,-109,601,-32,2,241,0,0,0,0,0,0,0,0,0,0,0
0,0,103,2060,-105,600,-33,2,1,0,0,0,0,0,0,0,0,0,0,0
0,0,97,2046,-107,600,-31,1,235,0,0,0,0,0,0,0,0,0,0,0
0,0,96,2047,-103,601,-30,2,242,0,0,0,0,0,0,0,0,0,0,0
0,0,106,2054,-111,601,-32,2,250,0,0,0,0,0,0,0,0,0,0,0
0,0,104,2044,-125,599,-32,1,220,0,0,0,0,0,0,0,0,0,0,0
0,0,106,2050,-118,597,-32,1,234,0,0,0,0,0,0,0,0,0,0,0
0,0,104,2053,-114,600,-31,1,243,0,0,0,0,0,0,0,0,0,0,0
0,0,100,2048,-108,600,-31,0,239,0,0,0,0,0,0,0,0,0,0,0
0,0,106,2047,-117,599,-32,0,232,0,0,0,0,0,0,0,0,0,0,0
0,0,99,2047,-105,601,-31,0,240,0,0,0,0,0,0,0,0,0,0,0
0,0,96,2038,-112,601,-32,1,221,0,0,0,0,0,0,0,0,0,0,0
0,0,103,2047,-115,601,-32,1,234,0,0,0,0,0,0,0,0,0,0,0
0,0,101,2049,-109,601,-32,0,240,0,0,0,0,0,0,0,0,0,0,0
0,0,106,2041,-100,600,-32,2,246,0,0,0,0,0,0,0,0,0,0,0
0,0,96,2056,-116,599,-32,1,234,0,0,0,0,0,0,0,0,0,0,0
0,0,96,2052,-107,600,-32,3,242,0,0,0,0,0,0,0,0,0,0,0
0,0,102,2045,-102,600,-31,1,244,0,0,0,0,0,0,0,0,0,0,0
0,0,100,2048,-109,599,-31,1,238,0,0,0,0,0,0,0,0,0,0,0
0,0,96,2050,-114,600,-31,-1,229,0,0,0,0,0,0,0,0,0,0,0
0,0,98,2053,-109,601,-32,2,243,0,0,0,0,0,0,0,0,0,0,0
0,0,106,2045,-121,601,-31,2,231,0,0,0,0,0,0,0,0,0,0,0
0,0,103,2045,-124,600,-31,1,223,0,0,0,0,0,0,0,0,0,0,0
0,0,103,2049,-110,601,-33,2,242,0,0,0,0,0,0,0,0,0,0,0
0,0,112,2050,-113,599,-32,1,247,0,0,0,0,0,0,0,0,0,0,0
0,0,109,2049,-107,601,-32,1,251,0,0,0,0,0,0,0,0,0,0,0
0,0,96,2052,-108,600,-31,1,240,0,0,0,0,0,0,0,0,0,0,0
0,0,99,2046,-107,600,-31,0,236,0,0,0,0,0,0,0,0,0,0,0
0,0,105,2053,-120,601,-32,1,238,0,0,0,0,0,0,0,0,0,0,0
0,0,103,2048,-115,599,-32,1,234,0,0,0,0,0,0,0,0,0,0,0
0,0,93,2044,-118,599,-32,1,216,0,0,0,0,0,0,0,0,0,0,0
0,0,96,2043,-119,601,-33,2,219,0,0,0,0,0,0,0,0,0,0,0
0,0,100,2047,-110,600,-32,1,235,0,0,0,0,0,0,0,0,0,0,0
0,0,103,2042,-110,600,-32,1,233,0,0,0,0,0,0,0,0,0,0,0
0,0,96,2051,-109,598,-31,1,236,0,0,0,0,0,0,0,0,0,0,0
0,0,99,2051,-115,599,-32,2,234,0,0,0,0,0,0,0,0,0,0,0
0,0,105,2047,-110,601,-30,0,242,0,0,0,0,0,0,0,0,0,0,0
0,0,95,2044,-116,599,-31,2,222,0,0,0,0,0,0,0,0,0,0,0
0,0,91,2051,-111,600,-32,3,232,0,0,0,0,0,0,0,0,0,0,0
0,0,102,2052,-96,600,-32,0,0,0,0,0,0,0,0,0,0,0,0,0
0,0,94,2048,-107,601,-32,2,236,0,0,0,0,0,0,0,0,0,0,0
0,0,99,2051,-110,600,-31,1,240,0,0,0,0,0,0,0,0,0,0,0
0,0,99,2050,-109,600,-29,1,242,0,0,0,0,0,0,0,0,0,0,0
0,0,97,2050,-113,601,-30,0,235,0,0,0,0,0,0,0,0,0,0,0
0,0,104,2052,-107,600,-32,0,247,0,0,0,0,0,0,0,0,0,0,0
0,0,100,2040,-111,601,-30,1,230,0,0,0,0,0,0,0,0,0,0,0
0,0,103,2051,-120,600,-32,1,233,0,0,0,0,0,0,0,0,0,0,0
0,0,97,2044,-117,601,-33,2,223,0,0,0,0,0,0,0,0,0,0,0
0,0,103,2047,-123,600,-33,1,224,0,0,0,0,0,0,0,0,0,0,0
0,0,99,2044,-120,601,-32,1,222,0,0,0,0,0,0,0,0,0,0,0
0,0,102,2048,-106,600,-32,2,244,0,0,0,0,0,0,0,0,0,0,0
0,0,104,2052,-103,600,-33,2,252,0,0,0,0,0,0,0,0,0,0,0
0,0,108,2048,-102,599,-30,2,255,0,0,0,0,0,0,0,0,0,0,0
0,0,106,2047,-114,600,-31,2,239,0,0,0,0,0,0,0,0,0,0,0
0,0,103,2043,-113,600,-31,0,231,0,0,0,0,0,0,0,0,0,0,0
0,0,103,2042,-103,600,-31,1,241,0,0,0,0,0,0,0,0,0,0,0
0,0,100,2046,-110,600,-32,1,234,0,0,0,0,0,0,0,0,0,0,0
0,0,102,2048,-96,600,-31,2,255,0,0,0,0,0,0,0,0,0,0,0
0,0,101,2054,-102,601,-32,3,255,0,0,0,0,0,0,0,0,0,0,0
0,0,100,2047,-109,600,-33,0,234,0,0,0,0,0,0,0,0,0,0,0
0,0,99,2049,-112,601,-32,1,236,0,0,0,0,0,0,0,0,0,0,0
0,0,109,2050,-120,602,-30,0,241,0,0,0,0,0,0,0,0,0,0,0
0,0,104,2053,-114,601,-30,1,245,0,0,0,0,0,0,0,0,0,0,0
0,0,109,2049,-118,600,-31,3,242,0,0,0,0,0,0,0,0,0,0,0
0,0,107,2053,-110,600,-33,1,248,0,0,0,0,0,0,0,0,0,0,0
0,0,102,2053,-105,600,-32,2,250,0,0,0,0,0,0,0,0,0,0,0
0,0,96,2048,-113,600,-32,2,231,0,0,0,0,0,0,0,0,0,0,0
0,0,105,2044,-106,602,-30,2,246,0,0,0,0,0,0,0,0,0,0,0
0,0,99,2041,-107,599,-32,1,230,0,0,0,0,0,0,0,0,0,0,0
0,0,94,2045,-111,600,-31,1,227,0,0,0,0,0,0,0,0,0,0,0
0,0,109,2037,-108,599,-32,0,234,0,0,0,0,0,0,0,0,0,0,0
0,0,107,2049,-108,600,-34,1,245,0,0,0,0,0,0,0,0,0,0,0
0,0,102,2045,-113,602,-31,2,236,0,0,0,0,0,0,0,0,0,0,0
