1,2,3,4,5,6,7,8,9,10,11,12,13,14,15,16,17,18,19,20
UserData_20,Frame ID£º0x01,FC_ACC_X,FC_ACC_Y,FC_ACC_Z,FC_GYR_X,FC_GYR_Y,FC_GYR_Z,FC_STA_Shock,Frame ID£º0x02,FC_MAG_X,FC_MAG_Y,FC_MAG_Z,FC_ALT_BAR,FC_SenserTMP,FC_STA_BAR,FC_STA_MAG,Frame ID£º0x03,FC_ATT_ROL,FC_ATT_PIT
0,0,57,-126,-2238,594,-31,-2,218,0,0,0,0,0,0,0,0,0,0,0
0,0,49,-122,-2226,596,-32,-1,228,0,0,0,0,0,0,0,0,0,0,0
0,0,48,-121,-2227,597,-32,-1,228,0,0,0,0,0,0,0,0,0,0,0
0,0,51,-126,-2233,595,-31,-3,217,0,0,0,0,0,0,0,0,0,0,0
0,0,50,-124,-2226,595,-31,-2,226,0,0,0,0,0,0,0,0,0,0,0
0,0,53,-123,-2233,595,-32,-2,222,0,0,0,0,0,0,0,0,0,0,0
0,0,42,-122,-2230,595,-33,-1,215,0,0,0,0,0,0,0,0,0,0,0
0,0,45,-124,-2234,596,-32,-1,214,0,0,0,0,0,0,0,0,0,0,0
0,0,51,-119,-2235,596,-32,-1,224,0,0,0,0,0,0,0,0,0,0,0
0,0,50,-125,-2236,595,-33,-2,213,0,0,0,0,0,0,0,0,0,0,0
0,0,47,-127,-2243,594,-32,0,204,0,0,0,0,0,0,0,0,0,0,0
0,0,53,-129,-2223,594,-33,-2,224,0,0,0,0,0,0,0,0,0,0,0
0,0,47,-125,-2237,595,-31,-3,210,0,0,0,0,0,0,0,0,0,0,0
0,0,43,-127,-2239,595,-31,-2,203,0,0,0,0,0,0,0,0,0,0,0
0,0,46,-122,-2228,597,-31,-4,222,0,0,0,0,0,0,0,0,0,0,0
0,0,45,-116,-2244,595,-31,-1,212,0,0,0,0,0,0,0,0,0,0,0
0,0,52,-127,-2230,595,-31,-2,221,0,0,0,0,0,0,0,0,0,0,0
0,0,57,-122,-2242,595,-31,-3,218,0,0,0,0,0,0,0,0,0,0,0
0,0,60,-120,-2237,595,-30,-1,231,0,0,0,0,0,0,0,0,0,0,0
0,0,49,-119,-2235,595,-32,-3,219,0,0,0,0,0,0,0,0,0,0,0
0,0,54,-119,-2225,596,-33,0,238,0,0,0,0,0,0,0,0,0,0,0
0,0,43,-125,-2234,596,-32,-1,211,0,0,0,0,0,0,0,0,0,0,0
0,0,49,-119,-2231,596,-33,-2,224,0,0,0,0,0,0,0,0,0,0,0
0,0,53,-114,-2234,597,-31,-1,234,0,0,0,0,0,0,0,0,0,0,0
0,0,45,-127,-2231,596,-31,-1,215,0,0,0,0,0,0,0,0,0,0,0
0,0,56,-130,-2231,596,-33,-1,221,0,0,0,0,0,0,0,0,0,0,0
0,0,53,-120,-2239,595,-31,-2,220,0,0,0,0,0,0,0,0,0,0,0
0,0,48,-122,-2239,595,-31,-3,212,0,0,0,0,0,0,0,0,0,0,0
0,0,50,-125,-2228,594,-32,-3,220,0,0,0,0,0,0,0,0,0,0,0
0,0,51,-118,-2236,595,-32,-1,223,0,0,0,0,0,0,0,0,0,0,0
0,0,45,-122,-2227,596,-32,-1,223,0,0,0,0,0,0,0,0,0,0,0
0,0,48,-127,-2231,595,-34,-2,213,0,0,0,0,0,0,0,0,0,0,0
0,0,47,-119,-2230,596,-32,-2,224,0,0,0,0,0,0,0,0,0,0,0
0,0,51,-122,-2234,595,-31,0,224,0,0,0,0,0,0,0,0,0,0,0
0,0,49,-124,-2234,595,-31,0,220,0,0,0,0,0,0,0,0,0,0,0
0,0,45,-124,-2227,595,-31,-1,221,0,0,0,0,0,0,0,0,0,0,0
0,0,51,-128,-2224,595,-32,-1,225,0,0,0,0,0,0,0,0,0,0,0
0,0,48,-127,-2233,594,-31,-1,214,0,0,0,0,0,0,0,0,0,0,0
0,0,48,-121,-2242,595,-31,-2,211,0,0,0,0,0,0,0,0,0,0,0
0,0,45,-121,-2244,596,-31,-2,207,0,0,0,0,0,0,0,0,0,0,0
0,0,53,-127,-2226,596,-30,-2,228,0,0,0,0,0,0,0,0,0,0,0
0,0,51,-132,-2238,596,-32,-2,207,0,0,0,0,0,0,0,0,0,0,0
0,0,45,-118,-2225,596,-32,-1,229,0,0,0,0,0,0,0,0,0,0,0
0,0,54,-121,-2234,595,-32,-3,223,0,0,0,0,0,0,0,0,0,0,0
0,0,54,-125,-2229,595,-33,-1,225,0,0,0,0,0,0,0,0,0,0,0
0,0,55,-125,-2236,595,-32,0,222,0,0,0,0,0,0,0,0,0,0,0
0,0,47,-129,-2239,594,-32,0,206,0,0,0,0,0,0,0,0,0,0,0
0,0,49,-128,-2238,595,-32,-1,209,0,0,0,0,0,0,0,0,0,0,0
0,0,49,-129,-2246,595,-31,-2,200,0,0,0,0,0,0,0,0,0,0,0
0,0,48,-118,-2246,594,-31,-3,208,0,0,0,0,0,0,0,0,0,0,0
0,0,49,-129,-2236,596,-32,-1,211,0,0,0,0,0,0,0,0,0,0,0
0,0,49,-125,-2245,597,-32,-2,206,0,0,0,0,0,0,0,0,0,0,0
0,0,51,-114,-2235,596,-31,-2,229,0,0,0,0,0,0,0,0,0,0,0
0,0,52,-123,-2233,595,-32,-1,222,0,0,0,0,0,0,0,0,0,0,0
0,0,52,-121,-2233,596,-33,-2,223,0,0,0,0,0,0,0,0,0,0,0
0,0,52,-122,-2251,595,-33,-2,203,0,0,0,0,0,0,0,0,0,0,0
0,0,47,-126,-2239,596,-30,-1,211,0,0,0,0,0,0,0,0,0,0,0
0,0,55,-119,-2227,595,-31,-2,235,0,0,0,0,0,0,0,0,0,0,0
0,0,51,-124,-2229,596,-33,-1,224,0,0,0,0,0,0,0,0,0,0,0
0,0,46,-124,-2235,595,-32,-3,211,0,0,0,0,0,0,0,0,0,0,0
0,0,55,-123,-2233,596,-31,-3,225,0,0,0,0,0,0,0,0,0,0,0
0,0,57,-123,-2236,594,-31,-3,222,0,0,0,0,0,0,0,0,0,0,0
0,0,48,-123,-2238,595,-31,-2,213,0,0,0,0,0,0,0,0,0,0,0
0,0,49,-123,-2234,596,-32,-3,217,0,0,0,0,0,0,0,0,0,0,0
0,0,45,-119,-2243,595,-31,-2,209,0,0,0,0,0,0,0,0,0,0,0
0,0,42,-122,-2236,595,-31,-3,209,0,0,0,0,0,0,0,0,0,0,0
0,0,44,-122,-2236,595,-32,-2,211,0,0,0,0,0,0,0,0,0,0,0
0,0,53,-125,-2234,597,-31,0,225,0,0,0,0,0,0,0,0,0,0,0
0,0,40,-126,-2231,596,-31,-2,210,0,0,0,0,0,0,0,0,0,0,0
0,0,39,-122,-2236,596,-32,-2,207,0,0,0,0,0,0,0,0,0,0,0
0,0,56,-125,-2236,596,-31,-3,221,0,0,0,0,0,0,0,0,0,0,0
0,0,51,-124,-2235,596,-33,-2,217,0,0,0,0,0,0,0,0,0,0,0
0,0,48,-126,-2230,595,-32,-1,218,0,0,0,0,0,0,0,0,0,0,0
0,0,52,-126,-2238,598,-32,-3,215,0,0,0,0,0,0,0,0,0,0,0
0,0,43,-128,-2239,594,-31,-3,200,0,0,0,0,0,0,0,0,0,0,0
0,0,42,-128,-2230,597,-31,-1,213,0,0,0,0,0,0,0,0,0,0,0
0,0,43,-122,-2218,596,-32,0,232,0,0,0,0,0,0,0,0,0,0,0
0,0,43,-127,-2233,596,-32,-2,209,0,0,0,0,0,0,0,0,0,0,0
0,0,46,-127,-2233,596,-32,-1,213,0,0,0,0,0,0,0,0,0,0,0
0,0,51,-121,-2224,596,-33,-1,232,0,0,0,0,0,0,0,0,0,0,0
0,0,49,-117,-2234,595,-31,-1,225,0,0,0,0,0,0,0,0,0,0,0
0,0,48,-122,-2240,596,-32,-1,213,0,0,0,0,0,0,0,0,0,0,0
0,0,52,-125,-2238,595,-32,-2,214,0,0,0,0,0,0,0,0,0,0,0
0,0,49,-125,-2233,595,-32,-3,215,0,0,0,0,0,0,0,0,0,0,0
0,0,58,-123,-2230,595,-31,-3,230,0,0,0,0,0,0,0,0,0,0,0
0,0,52,-133,-2242,595,-31,-2,203,0,0,0,0,0,0,0,0,0,0,0
0,0,42,-120,-2232,597,-31,-1,219,0,0,0,0,0,0,0,0,0,0,0
0,0,52,-118,-2232,595,-31,-1,229,0,0,0,0,0,0,0,0,0,0,0
0,0,53,-125,-2229,595,-31,-1,226,0,0,0,0,0,0,0,0,0,0,0
0,0,44,-126,-2229,597,-32,-1,217,0,0,0,0,0,0,0,0,0,0,0
0,0,41,-126,-2236,596,-32,-1,206,0,0,0,0,0,0,0,0,0,0,0
0,0,50,-127,-2241,596,-31,-1,210,0,0,0,0,0,0,0,0,0,0,0
0,0,53,-123,-2230,596,-32,0,229,0,0,0,0,0,0,0,0,0,0,0
0,0,49,-122,-2240,596,-30,-2,215,0,0,0,0,0,0,0,0,0,0,0
0,0,46,-128,-2229,596,-32,-1,216,0,0,0,0,0,0,0,0,0,0,0
0,0,44,-128,-2232,595,-32,0,212,0,0,0,0,0,0,0,0,0,0,0
0,0,49,-132,-2237,596,-31,-3,206,0,0,0,0,0,0,0,0,0,0,0
0,0,46,-122,-2242,595,-32,-4,205,0,0,0,0,0,0,0,0,0,0,0
0,0,47,-126,-2225,597,-32,-3,222,0,0,0,0,0,0,0,0,0,0,0
0,0,41,-125,-2237,596,-31,-2,206,0,0,0,0,0,0,0,0,0,0,0
0,0,48,-123,-2235,594,-32,-1,215,0,0,0,0,0,0,0,0,0,0,0
0,0,52,-120,-2229,595,-33,-1,228,0,0,0,0,0,0,0,0,0,0,0
0,0,40,-123,-2242,596,-32,-1,202,0,0,0,0,0,0,0,0,0,0,0
0,0,47,-125,-2246,595,-32,0,204,0,0,0,0,0,0,0,0,0,0,0
0,0,49,-131,-2232,595,-32,-4,209,0,0,0,0,0,0,0,0,0,0,0
0,0,54,-121,-2234,596,-31,-1,227,0,0,0,0,0,0,0,0,0,0,0
0,0,50,-131,-2228,596,-33,-1,217,0,0,0,0,0,0,0,0,0,0,0
0,0,53,-127,-2236,596,-32,-1,217,0,0,0,0,0,0,0,0,0,0,0
0,0,52,-126,-2231,595,-32,-2,220,0,0,0,0,0,0,0,0,0,0,0
0,0,50,-128,-2236,595,-32,-1,212,0,0,0,0,0,0,0,0,0,0,0
0,0,56,-130,-2242,596,-33,-2,209,0,0,0,0,0,0,0,0,0,0,0
0,0,47,-122,-2235,597,-32,-1,218,0,0,0,0,0,0,0,0,0,0,0
0,0,47,-125,-2243,596,-32,-2,205,0,0,0,0,0,0,0,0,0,0,0
0,0,49,-121,-2237,596,-33,-1,217,0,0,0,0,0,0,0,0,0,0,0
0,0,52,-125,-2230,594,-32,-1,222,0,0,0,0,0,0,0,0,0,0,0
0,0,61,-122,-2232,595,-31,-1,234,0,0,0,0,0,0,0,0,0,0,0
0,0,54,-121,-2234,595,-31,-1,226,0,0,0,0,0,0,0,0,0,0,0
0,0,50,-119,-2229,596,-30,-1,231,0,0,0,0,0,0,0,0,0,0,0
0,0,54,-123,-2239,595,-32,-2,217,0,0,0,0,0,0,0,0,0,0,0
0,0,59,-129,-2229,596,-31,-1,229,0,0,0,0,0,0,0,0,0,0,0
0,0,46,-120,-2234,594,-33,-1,216,0,0,0,0,0,0,0,0,0,0,0
0,0,48,-125,-2236,594,-32,-2,211,0,0,0,0,0,0,0,0,0,0,0
0,0,52,-118,-2243,596,-32,-1,218,0,0,0,0,0,0,0,0,0,0,0
0,0,64,-119,-2232,595,-32,0,241,0,0,0,0,0,0,0,0,0,0,0
0,0,47,-126,-2228,597,-32,-2,220,0,0,0,0,0,0,0,0,0,0,0
0,0,56,-124,-2240,596,-32,-2,218,0,0,0,0,0,0,0,0,0,0,0
0,0,59,-125,-2235,596,-30,-4,225,0,0,0,0,0,0,0,0,0,0,0
0,0,45,-124,-2239,595,-32,-3,206,0,0,0,0,0,0,0,0,0,0,0
0,0,53,-121,-2247,596,-32,-1,212,0,0,0,0,0,0,0,0,0,0,0
0,0,53,-126,-2241,595,-31,0,215,0,0,0,0,0,0,0,0,0,0,0
0,0,46,-121,-2247,596,-32,-2,204,0,0,0,0,0,0,0,0,0,0,0
0,0,49,-123,-2239,596,-32,-1,214,0,0,0,0,0,0,0,0,0,0,0
0,0,47,-126,-2228,595,-32,-1,219,0,0,0,0,0,0,0,0,0,0,0
0,0,44,-128,-2226,596,-31,-3,216,0,0,0,0,0,0,0,0,0,0,0
0,0,49,-123,-2237,595,-32,-2,214,0,0,0,0,0,0,0,0,0,0,0
0,0,56,-125,-2237,594,-33,-1,218,0,0,0,0,0,0,0,0,0,0,0
0,0,53,-124,-2240,596,-30,-2,217,0,0,0,0,0,0,0,0,0,0,0
0,0,38,-122,-2234,596,-32,-1,209,0,0,0,0,0,0,0,0,0,0,0
0,0,47,-117,-2235,597,-31,0,226,0,0,0,0,0,0,0,0,0,0,0
0,0,56,-124,-2232,596,-30,-1,229,0,0,0,0,0,0,0,0,0,0,0
0,0,51,-120,-2230,595,-32,-2,226,0,0,0,0,0,0,0,0,0,0,0
0,0,52,-124,-2233,595,-32,-1,221,0,0,0,0,0,0,0,0,0,0,0
0,0,46,-129,-2235,594,-32,-2,206,0,0,0,0,0,0,0,0,0,0,0
0,0,48,-126,-2230,596,-31,-1,220,0,0,0,0,0,0,0,0,0,0,0
0,0,47,-127,-2234,596,-31,-1,214,0,0,0,0,0,0,0,0,0,0,0
0,0,44,-120,-2239,595,-31,-1,212,0,0,0,0,0,0,0,0,0,0,0
0,0,44,-123,-2218,596,-31,-1,231,0,0,0,0,0,0,0,0,0,0,0
0,0,43,-132,-2235,597,-33,-1,203,0,0,0,0,0,0,0,0,0,0,0
0,0,40,-129,-2229,596,-33,-1,208,0,0,0,0,0,0,0,0,0,0,0
0,0,46,-123,-2231,596,-33,0,220,0,0,0,0,0,0,0,0,0,0,0
0,0,48,-119,-2230,595,-33,-1,224,0,0,0,0,0,0,0,0,0,0,0
0,0,49,-122,-2230,594,-31,-2,222,0,0,0,0,0,0,0,0,0,0,0
0,0,53,-118,-2239,596,-33,-4,219,0,0,0,0,0,0,0,0,0,0,0
0,0,46,-129,-2235,597,-33,-2,208,0,0,0,0,0,0,0,0,0,0,0
0,0,48,-124,-2234,595,-32,-2,215,0,0,0,0,0,0,0,0,0,0,0
0,0,55,-125,-2241,595,-30,-2,216,0,0,0,0,0,0,0,0,0,0,0
0,0,49,-121,-2235,596,-30,-2,221,0,0,0,0,0,0,0,0,0,0,0
0,0,53,-124,-2232,595,-32,-1,223,0,0,0,0,0,0,0,0,0,0,0
0,0,52,-132,-2245,597,-32,-2,202,0,0,0,0,0,0,0,0,0,0,0
0,0,47,-124,-2240,595,-33,-3,206,0,0,0,0,0,0,0,0,0,0,0
0,0,52,-125,-2236,596,-31,-2,218,0,0,0,0,0,0,0,0,0,0,0
0,0,37,-124,-2224,596,-32,0,218,0,0,0,0,0,0,0,0,0,0,0
0,0,49,-122,-2230,595,-32,-2,222,0,0,0,0,0,0,0,0,0,0,0
0,0,49,-129,-2242,595,-32,-2,203,0,0,0,0,0,0,0,0,0,0,0
0,0,49,-120,-2242,596,-33,-2,212,0,0,0,0,0,0,0,0,0,0,0
0,0,53,-117,-2235,596,-31,-1,229,0,0,0,0,0,0,0,0,0,0,0
0,0,51,-122,-2230,595,-31,-2,225,0,0,0,0,0,0,0,0,0,0,0
0,0,49,-122,-2230,597,-32,-2,224,0,0,0,0,0,0,0,0,0,0,0
0,0,53,-127,-2240,595,-33,-2,210,0,0,0,0,0,0,0,0,0,0,0
0,0,60,-128,-2232,597,-31,-1,229,0,0,0,0,0,0,0,0,0,0,0
0,0,53,-122,-2230,595,-33,-2,225,0,0,0,0,0,0,0,0,0,0,0
0,0,50,-121,-2236,596,-32,-3,218,0,0,0,0,0,0,0,0,0,0,0
0,0,55,-121,-2234,595,-31,-2,226,0,0,0,0,0,0,0,0,0,0,0
0,0,52,-127,-2245,595,-33,-2,204,0,0,0,0,0,0,0,0,0,0,0
0,0,52,-120,-2237,595,-32,-2,220,0,0,0,0,0,0,0,0,0,0,0
0,0,45,-126,-2240,596,-31,-1,207,0,0,0,0,0,0,0,0,0,0,0
0,0,49,-124,-2235,595,-32,-1,216,0,0,0,0,0,0,0,0,0,0,0
0,0,52,-125,-2222,596,-31,-1,233,0,0,0,0,0,0,0,0,0,0,0
0,0,47,-119,-2233,598,-31,-2,224,0,0,0,0,0,0,0,0,0,0,0
0,0,56,-121,-2232,596,-30,-3,230,0,0,0,0,0,0,0,0,0,0,0
0,0,59,-123,-2228,596,-30,-1,237,0,0,0,0,0,0,0,0,0,0,0
0,0,52,-125,-2237,595,-32,-1,216,0,0,0,0,0,0,0,0,0,0,0
0,0,49,-125,-2232,594,-32,-2,216,0,0,0,0,0,0,0,0,0,0,0
0,0,53,-121,-2224,595,-33,-2,232,0,0,0,0,0,0,0,0,0,0,0
0,0,48,-128,-2228,595,-33,-4,214,0,0,0,0,0,0,0,0,0,0,0
0,0,45,-113,-2234,595,-31,-2,224,0,0,0,0,0,0,0,0,0,0,0
0,0,47,-118,-2227,597,-32,-3,228,0,0,0,0,0,0,0,0,0,0,0
0,0,45,-120,-2238,595,-31,-1,214,0,0,0,0,0,0,0,0,0,0,0
0,0,42,-120,-2239,595,-33,-2,207,0,0,0,0,0,0,0,0,0,0,0
0,0,48,-124,-2244,598,-31,0,212,0,0,0,0,0,0,0,0,0,0,0
0,0,47,-121,-2242,596,-31,-1,212,0,0,0,0,0,0,0,0,0,0,0
0,0,50,-124,-2234,597,-31,-1,221,0,0,0,0,0,0,0,0,0,0,0
0,0,50,-125,-2231,597,-33,-2,220,0,0,0,0,0,0,0,0,0,0,0
0,0,56,-124,-2234,596,-31,-3,224,0,0,0,0,0,0,0,0,0,0,0
0,0,51,-124,-2237,596,-32,-2,216,0,0,0,0,0,0,0,0,0,0,0
0,0,43,-118,-2233,596,-32,-3,217,0,0,0,0,0,0,0,0,0,0,0
0,0,43,-130,-2230,595,-33,-1,208,0,0,0,0,0,0,0,0,0,0,0
0,0,45,-113,-2222,594,-31,-2,235,0,0,0,0,0,0,0,0,0,0,0
0,0,47,-124,-2233,594,-32,-1,215,0,0,0,0,0,0,0,0,0,0,0
0,0,55,-124,-2228,594,-32,-1,228,0,0,0,0,0,0,0,0,0,0,0
0,0,45,-131,-2228,594,-32,-2,210,0,0,0,0,0,0,0,0,0,0,0
0,0,48,-126,-2228,595,-32,-3,218,0,0,0,0,0,0,0,0,0,0,0
0,0,51,-125,-2219,595,-32,-2,232,0,0,0,0,0,0,0,0,0,0,0
0,0,48,-118,-2243,594,-32,-3,210,0,0,0,0,0,0,0,0,0,0,0
0,0,62,-129,-2231,595,-31,-1,229,0,0,0,0,0,0,0,0,0,0,0
0,0,50,-127,-2245,597,-32,-2,205,0,0,0,0,0,0,0,0,0,0,0
0,0,53,-122,-2232,594,-32,-2,223,0,0,0,0,0,0,0,0,0,0,0
0,0,53,-128,-2232,596,-32,-2,219,0,0,0,0,0,0,0,0,0,0,0
0,0,55,-119,-2245,596,-32,-2,217,0,0,0,0,0,0,0,0,0,0,0
0,0,52,-124,-2230,597,-33,-1,225,0,0,0,0,0,0,0,0,0,0,0
0,0,45,-124,-2233,596,-31,-3,214,0,0,0,0,0,0,0,0,0,0,0
0,0,53,-122,-2224,595,-32,-1,233,0,0,0,0,0,0,0,0,0,0,0
0,0,46,-119,-2233,595,-32,-1,220,0,0,0,0,0,0,0,0,0,0,0
0,0,50,-123,-2230,595,-32,-2,222,0,0,0,0,0,0,0,0,0,0,0
0,0,53,-126,-2234,596,-31,-2,220,0,0,0,0,0,0,0,0,0,0,0
0,0,45,-126,-2229,595,-32,-1,216,0,0,0,0,0,0,0,0,0,0,0
0,0,48,-116,-2234,595,-31,-1,225,0,0,0,0,0,0,0,0,0,0,0
0,0,49,-130,-2234,597,-32,-3,211,0,0,0,0,0,0,0,0,0,0,0
0,0,49,-135,-2231,596,-33,-2,208,0,0,0,0,0,0,0,0,0,0,0
0,0,47,-130,-2238,595,-31,-1,206,0,0,0,0,0,0,0,0,0,0,0
0,0,37,-124,-2231,596,-32,-1,209,0,0,0,0,0,0,0,0,0,0,0
0,0,51,-127,-2244,597,-32,-2,207,0,0,0,0,0,0,0,0,0,0,0
0,0,47,-126,-2228,594,-33,-1,217,0,0,0,0,0,0,0,0,0,0,0
0,0,41,-128,-2230,595,-32,-2,208,0,0,0,0,0,0,0,0,0,0,0
0,0,51,-119,-2236,595,-30,-1,224,0,0,0,0,0,0,0,0,0,0,0
0,0,49,-121,-2239,596,-32,-3,214,0,0,0,0,0,0,0,0,0,0,0
0,0,53,-120,-2243,595,-32,-3,214,0,0,0,0,0,0,0,0,0,0,0
0,0,56,-127,-2234,594,-33,-1,219,0,0,0,0,0,0,0,0,0,0,0
0,0,55,-131,-2234,596,-31,-2,217,0,0,0,0,0,0,0,0,0,0,0
0,0,46,-121,-2236,596,-33,-1,215,0,0,0,0,0,0,0,0,0,0,0
0,0,49,-121,-2235,596,-32,-1,220,0,0,0,0,0,0,0,0,0,0,0
0,0,48,-126,-2240,597,-32,0,212,0,0,0,0,0,0,0,0,0,0,0
0,0,44,-128,-2221,595,-31,-1,222,0,0,0,0,0,0,0,0,0,0,0
0,0,55,-122,-2240,594,-32,-2,217,0,0,0,0,0,0,0,0,0,0,0
0,0,52,-125,-2231,595,-30,-3,222,0,0,0,0,0,0,0,0,0,0,0
0,0,52,-120,-2229,597,-32,-3,229,0,0,0,0,0,0,0,0,0,0,0
0,0,54,-123,-2221,597,-31,-3,237,0,0,0,0,0,0,0,0,0,0,0
0,0,50,-123,-2218,594,-31,-1,235,0,0,0,0,0,0,0,0,0,0,0
0,0,42,-123,-2238,596,-32,-2,207,0,0,0,0,0,0,0,0,0,0,0
0,0,45,-116,-2248,596,-33,-2,206,0,0,0,0,0,0,0,0,0,0,0
0,0,48,-125,-2242,598,-32,-2,209,0,0,0,0,0,0,0,0,0,0,0
0,0,50,-128,-2234,597,-32,-2,215,0,0,0,0,0,0,0,0,0,0,0
0,0,47,-122,-2229,595,-32,0,224,0,0,0,0,0,0,0,0,0,0,0
0,0,53,-123,-2230,596,-32,-1,227,0,0,0,0,0,0,0,0,0,0,0
0,0,54,-126,-2234,596,-32,-2,220,0,0,0,0,0,0,0,0,0,0,0
0,0,55,-126,-2237,596,-32,-2,218,0,0,0,0,0,0,0,0,0,0,0
0,0,51,-122,-2231,595,-33,-2,222,0,0,0,0,0,0,0,0,0,0,0
0,0,47,-127,-2233,595,-32,-1,213,0,0,0,0,0,0,0,0,0,0,0
0,0,45,-121,-2234,596,-32,-3,215,0,0,0,0,0,0,0,0,0,0,0
0,0,50,-123,-2232,595,-32,-3,219,0,0,0,0,0,0,0,0,0,0,0
0,0,50,-120,-2227,596,-32,-3,228,0,0,0,0,0,0,0,0,0,0,0
0,0,48,-125,-2233,595,-31,-2,216,0,0,0,0,0,0,0,0,0,0,0
0,0,47,-127,-2244,596,-31,-2,203,0,0,0,0,0,0,0,0,0,0,0
0,0,53,-124,-2233,595,-32,-1,222,0,0,0,0,0,0,0,0,0,0,0
0,0,52,-125,-2229,597,-33,-2,224,0,0,0,0,0,0,0,0,0,0,0
0,0,40,-128,-2223,595,-31,-1,216,0,0,0,0,0,0,0,0,0,0,0
0,0,54,-119,-2228,596,-31,-1,235,0,0,0,0,0,0,0,0,0,0,0
0,0,52,-119,-2239,595,-33,-3,217,0,0,0,0,0,0,0,0,0,0,0
0,0,44,-118,-2231,596,-32,-1,222,0,0,0,0,0,0,0,0,0,0,0
0,0,42,-117,-2234,597,-31,-1,220,0,0,0,0,0,0,0,0,0,0,0
0,0,48,-119,-2230,596,-32,-2,225,0,0,0,0,0,0,0,0,0,0,0
0,0,55,-124,-2240,597,-31,-2,219,0,0,0,0,0,0,0,0,0,0,0
0,0,48,-122,-2236,596,-32,-2,216,0,0,0,0,0,0,0,0,0,0,0
0,0,54,-124,-2237,596,-32,-3,218,0,0,0,0,0,0,0,0,0,0,0
0,0,45,-117,-2238,597,-31,-2,218,0,0,0,0,0,0,0,0,0,0,0
0,0,45,-123,-2227,595,-32,-2,220,0,0,0,0,0,0,0,0,0,0,0
0,0,54,-124,-2231,595,-31,-2,225,0,0,0,0,0,0,0,0,0,0,0
0,0,48,-122,-2225,596,-31,-1,229,0,0,0,0,0,0,0,0,0,0,0
0,0,43,-123,-2234,595,-31,-1,213,0,0,0,0,0,0,0,0,0,0,0
0,0,50,-120,-2225,596,-33,-2,230,0,0,0,0,0,0,0,0,0,0,0
0,0,48,-125,-2238,595,-32,-1,211,0,0,0,0,0,0,0,0,0,0,0
0,0,53,-126,-2243,597,-32,-3,210,0,0,0,0,0,0,0,0,0,0,0
0,0,58,-127,-2239,595,-31,-2,218,0,0,0,0,0,0,0,0,0,0,0
0,0,48,-121,-2229,594,-30,-2,224,0,0,0,0,0,0,0,0,0,0,0
0,0,45,-124,-2234,597,-32,-2,214,0,0,0,0,0,0,0,0,0,0,0
0,0,41,-125,-2228,594,-32,-2,212,0,0,0,0,0,0,0,0,0,0,0
0,0,54,-123,-2236,594,-32,-2,219,0,0,0,0,0,0,0,0,0,0,0
0,0,54,-120,-2240,595,-32,-1,220,0,0,0,0,0,0,0,0,0,0,0
0,0,51,-127,-2242,597,-32,-2,209,0,0,0,0,0,0,0,0,0,0,0
0,0,50,-119,-2247,595,-31,-2,210,0,0,0,0,0,0,0,0,0,0,0
0,0,41,-122,-2248,597,-32,-4,196,0,0,0,0,0,0,0,0,0,0,0
0,0,39,-125,-2236,596,-33,-1,204,0,0,0,0,0,0,0,0,0,0,0
0,0,46,-126,-2246,594,-31,-3,198,0,0,0,0,0,0,0,0,0,0,0
0,0,44,-123,-2238,596,-32,-3,208,0,0,0,0,0,0,0,0,0,0,0
0,0,47,-120,-2237,595,-32,-2,215,0,0,0,0,0,0,0,0,0,0,0
0,0,49,-121,-2232,595,-31,-2,222,0,0,0,0,0,0,0,0,0,0,0
0,0,49,-127,-2225,595,-32,-2,222,0,0,0,0,0,0,0,0,0,0,0
0,0,45,-118,-2241,595,-32,-3,210,0,0,0,0,0,0,0,0,0,0,0
0,0,49,-127,-2228,596,-32,-3,219,0,0,0,0,0,0,0,0,0,0,0
0,0,47,-111,-2236,596,-32,-2,226,0,0,0,0,0,0,0,0,0,0,0
0,0,48,-121,-2234,595,-32,-2,218,0,0,0,0,0,0,0,0,0,0,0
0,0,56,-124,-2226,595,-32,-3,230,0,0,0,0,0,0,0,0,0,0,0
0,0,50,-120,-2229,596,-32,-3,226,0,0,0,0,0,0,0,0,0,0,0
0,0,45,-120,-2228,596,-34,-2,221,0,0,0,0,0,0,0,0,0,0,0
0,0,47,-121,-2234,595,-33,-1,217,0,0,0,0,0,0,0,0,0,0,0
0,0,46,-124,-2237,596,-34,-1,210,0,0,0,0,0,0,0,0,0,0,0
0,0,45,-116,-2227,597,-30,-1,232,0,0,0,0,0,0,0,0,0,0,0
0,0,50,-117,-2236,596,-31,-2,224,0,0,0,0,0,0,0,0,0,0,0
0,0,38,-123,-2226,594,-32,-1,214,0,0,0,0,0,0,0,0,0,0,0
0,0,45,-122,-2230,595,-34,-2,216,0,0,0,0,0,0,0,0,0,0,0
0,0,51,-130,-2240,595,-31,-2,207,0,0,0,0,0,0,0,0,0,0,0
0,0,53,-118,-2223,597,-32,-1,240,0,0,0,0,0,0,0,0,0,0,0
0,0,46,-129,-2236,596,-32,-2,207,0,0,0,0,0,0,0,0,0,0,0
0,0,46,-119,-2238,596,-32,-2,215,0,0,0,0,0,0,0,0,0,0,0
0,0,46,-124,-2232,597,-32,-2,217,0,0,0,0,0,0,0,0,0,0,0
0,0,51,-120,-2232,596,-32,-2,225,0,0,0,0,0,0,0,0,0,0,0
0,0,46,-124,-2238,595,-30,0,214,0,0,0,0,0,0,0,0,0,0,0
0,0,51,-122,-2235,595,-33,-3,217,0,0,0,0,0,0,0,0,0,0,0
0,0,47,-112,-2238,595,-32,-1,223,0,0,0,0,0,0,0,0,0,0,0
0,0,50,-124,-2225,595,-32,-2,226,0,0,0,0,0,0,0,0,0,0,0
0,0,48,-121,-2233,595,-32,-3,218,0,0,0,0,0,0,0,0,0,0,0
0,0,50,-123,-2241,596,-32,-4,210,0,0,0,0,0,0,0,0,0,0,0
0,0,52,-112,-2230,595,-32,-2,235,0,0,0,0,0,0,0,0,0,0,0
0,0,42,-123,-2236,597,-32,-3,209,0,0,0,0,0,0,0,0,0,0,0
0,0,49,-122,-2236,597,-31,-2,219,0,0,0,0,0,0,0,0,0,0,0
0,0,51,-113,-2221,596,-32,-2,243,0,0,0,0,0,0,0,0,0,0,0
0,0,56,-119,-2239,597,-32,-2,225,0,0,0,0,0,0,0,0,0,0,0
0,0,44,-130,-2230,595,-32,-1,210,0,0,0,0,0,0,0,0,0,0,0
0,0,48,-125,-2241,595,-32,-1,208,0,0,0,0,0,0,0,0,0,0,0
0,0,46,-123,-2228,597,-31,-2,223,0,0,0,0,0,0,0,0,0,0,0
0,0,46,-123,-2243,595,-32,-2,205,0,0,0,0,0,0,0,0,0,0,0
0,0,48,-119,-2250,598,-31,-1,209,0,0,0,0,0,0,0,0,0,0,0
0,0,49,-121,-2245,596,-31,-3,209,0,0,0,0,0,0,0,0,0,0,0
0,0,46,-118,-2225,595,-32,-1,229,0,0,0,0,0,0,0,0,0,0,0
0,0,44,-124,-2238,596,-33,0,210,0,0,0,0,0,0,0,0,0,0,0
0,0,50,-116,-2227,597,-31,-1,236,0,0,0,0,0,0,0,0,0,0,0
0,0,52,-123,-2235,596,-31,-1,222,0,0,0,0,0,0,0,0,0,0,0
0,0,53,-125,-2237,595,-31,-2,217,0,0,0,0,0,0,0,0,0,0,0
0,0,55,-120,-2242,596,-32,-1,220,0,0,0,0,0,0,0,0,0,0,0
0,0,51,-123,-2234,596,-32,-2,220,0,0,0,0,0,0,0,0,0,0,0
0,0,49,-122,-2228,596,-31,-1,227,0,0,0,0,0,0,0,0,0,0,0
0,0,37,-122,-2225,595,-32,0,218,0,0,0,0,0,0,0,0,0,0,0
0,0,54,-124,-2248,596,-32,0,211,0,0,0,0,0,0,0,0,0,0,0
0,0,51,-115,-2228,597,-31,0,239,0,0,0,0,0,0,0,0,0,0,0
0,0,46,-127,-2233,595,-29,-3,213,0,0,0,0,0,0,0,0,0,0,0
0,0,52,-120,-2231,594,-32,-3,224,0,0,0,0,0,0,0,0,0,0,0
0,0,44,-130,-2232,596,-33,-3,206,0,0,0,0,0,0,0,0,0,0,0
0,0,49,-127,-2233,595,-31,-2,215,0,0,0,0,0,0,0,0,0,0,0
0,0,53,-131,-2228,596,-32,-2,220,0,0,0,0,0,0,0,0,0,0,0
0,0,54,-129,-2223,595,-30,-3,228,0,0,0,0,0,0,0,0,0,0,0
0,0,49,-119,-2231,594,-31,-2,224,0,0,0,0,0,0,0,0,0,0,0
0,0,41,-113,-2234,595,-31,-1,221,0,0,0,0,0,0,0,0,0,0,0
0,0,49,-127,-2234,595,-32,-1,214,0,0,0,0,0,0,0,0,0,0,0
0,0,61,-120,-2236,597,-32,-2,232,0,0,0,0,0,0,0,0,0,0,0
0,0,49,-123,-2233,597,-31,-1,222,0,0,0,0,0,0,0,0,0,0,0
0,0,51,-120,-2226,596,-32,-2,231,0,0,0,0,0,0,0,0,0,0,0
0,0,47,-122,-2230,596,-32,-2,221,0,0,0,0,0,0,0,0,0,0,0
0,0,49,-120,-2234,595,-31,1,225,0,0,0,0,0,0,0,0,0,0,0
0,0,42,-129,-2246,597,-33,-3,192,0,0,0,0,0,0,0,0,0,0,0
0,0,54,-127,-2235,596,-32,-2,218,0,0,0,0,0,0,0,0,0,0,0
0,0,48,-128,-2228,596,-33,0,220,0,0,0,0,0,0,0,0,0,0,0
0,0,54,-133,-2239,595,-32,-2,207,0,0,0,0,0,0,0,0,0,0,0
0,0,53,-125,-2239,596,-33,-2,214,0,0,0,0,0,0,0,0,0,0,0
0,0,50,-119,-2234,594,-33,-2,220,0,0,0,0,0,0,0,0,0,0,0
0,0,53,-119,-2235,596,-32,-2,225,0,0,0,0,0,0,0,0,0,0,0
0,0,53,-124,-2229,595,-32,-1,226,0,0,0,0,0,0,0,0,0,0,0
0,0,46,-124,-2245,595,-31,-2,203,0,0,0,0,0,0,0,0,0,0,0
0,0,51,-131,-2233,596,-32,-2,213,0,0,0,0,0,0,0,0,0,0,0
0,0,43,-133,-2230,595,-32,-2,205,0,0,0,0,0,0,0,0,0,0,0
0,0,47,-128,-2239,596,-32,-3,205,0,0,0,0,0,0,0,0,0,0,0
0,0,49,-118,-2233,595,-33,-2,222,0,0,0,0,0,0,0,0,0,0,0
0,0,48,-126,-2234,596,-31,-1,216,0,0,0,0,0,0,0,0,0,0,0
0,0,39,-123,-2229,596,-31,0,217,0,0,0,0,0,0,0,0,0,0,0
0,0,47,-119,-2232,595,-33,-2,220,0,0,0,0,0,0,0,0,0,0,0
0,0,49,-117,-2242,595,-30,0,220,0,0,0,0,0,0,0,0,0,0,0
0,0,52,-122,-2230,597,-33,-1,227,0,0,0,0,0,0,0,0,0,0,0
0,0,51,-123,-2232,597,-32,-3,222,0,0,0,0,0,0,0,0,0,0,0
0,0,50,-130,-2241,596,-32,-2,205,0,0,0,0,0,0,0,0,0,0,0
0,0,53,-128,-2238,594,-33,-2,210,0,0,0,0,0,0,0,0,0,0,0
0,0,52,-123,-2230,596,-31,-1,227,0,0,0,0,0,0,0,0,0,0,0
0,0,49,-124,-2232,596,-31,-3,219,0,0,0,0,0,0,0,0,0,0,0
0,0,48,-125,-2235,596,-31,-3,214,0,0,0,0,0,0,0,0,0,0,0
0,0,49,-124,-2246,593,-33,-2,201,0,0,0,0,0,0,0,0,0,0,0
0,0,44,-114,-2237,594,-32,-3,216,0,0,0,0,0,0,0,0,0,0,0
0,0,51,-127,-2235,596,-32,-2,215,0,0,0,0,0,0,0,0,0,0,0
0,0,55,-128,-2233,595,-33,-2,218,0,0,0,0,0,0,0,0,0,0,0
0,0,46,-123,-2236,596,-33,-2,212,0,0,0,0,0,0,0,0,0,0,0
0,0,48,-125,-2235,596,-31,-2,215,0,0,0,0,0,0,0,0,0,0,0
0,0,53,-128,-2231,594,-30,-1,221,0,0,0,0,0,0,0,0,0,0,0
0,0,55,-124,-2228,595,-31,-1,230,0,0,0,0,0,0,0,0,0,0,0
0,0,53,-126,-2246,596,-31,-1,209,0,0,0,0,0,0,0,0,0,0,0
0,0,57,-117,-2237,596,-32,-1,230,0,0,0,0,0,0,0,0,0,0,0
0,0,51,-127,-2238,596,-32,-1,213,0,0,0,0,0,0,0,0,0,0,0
0,0,46,-116,-2243,595,-31,-3,212,0,0,0,0,0,0,0,0,0,0,0
0,0,50,-118,-2235,596,-32,-2,223,0,0,0,0,0,0,0,0,0,0,0
0,0,53,-117,-2242,595,-33,-3,217,0,0,0,0,0,0,0,0,0,0,0
0,0,55,-124,-2221,596,-31,-2,237,0,0,0,0,0,0,0,0,0,0,0
0,0,49,-123,-2220,596,-33,-2,231,0,0,0,0,0,0,0,0,0,0,0
0,0,47,-124,-2229,596,-33,-1,220,0,0,0,0,0,0,0,0,0,0,0
0,0,53,-124,-2231,596,-33,-1,224,0,0,0,0,0,0,0,0,0,0,0
0,0,41,-116,-2227,595,-33,-2,222,0,0,0,0,0,0,0,0,0,0,0
0,0,49,-127,-2233,595,-31,-2,215,0,0,0,0,0,0,0,0,0,0,0
0,0,49,-121,-2231,595,-34,0,223,0,0,0,0,0,0,0,0,0,0,0
0,0,55,-125,-2236,594,-31,-2,219,0,0,0,0,0,0,0,0,0,0,0
0,0,49,-119,-2244,595,-32,-1,212,0,0,0,0,0,0,0,0,0,0,0
0,0,53,-118,-2234,595,-31,-1,228,0,0,0,0,0,0,0,0,0,0,0
0,0,48,-121,-2230,595,-31,-3,222,0,0,0,0,0,0,0,0,0,0,0
0,0,46,-122,-2230,596,-32,-3,219,0,0,0,0,0,0,0,0,0,0,0
0,0,39,-119,-2238,596,-30,-1,211,0,0,0,0,0,0,0,0,0,0,0
0,0,47,-120,-2229,596,-31,0,228,0,0,0,0,0,0,0,0,0,0,0
0,0,58,-128,-2233,597,-31,-2,225,0,0,0,0,0,0,0,0,0,0,0
0,0,47,-130,-2229,594,-31,-2,213,0,0,0,0,0,0,0,0,0,0,0
0,0,53,-120,-2238,595,-32,-2,220,0,0,0,0,0,0,0,0,0,0,0
0,0,54,-122,-2232,595,-32,-1,226,0,0,0,0,0,0,0,0,0,0,0
0,0,43,-119,-2224,596,-32,-1,227,0,0,0,0,0,0,0,0,0,0,0
0,0,50,-131,-2233,595,-33,-1,211,0,0,0,0,0,0,0,0,0,0,0
0,0,46,-122,-2235,595,-32,-1,215,0,0,0,0,0,0,0,0,0,0,0
0,0,46,-124,-2238,595,-32,-2,209,0,0,0,0,0,0,0,0,0,0,0
0,0,58,-121,-2241,596,-31,-3,222,0,0,0,0,0,0,0,0,0,0,0
0,0,47,-117,-2234,595,-31,-3,221,0,0,0,0,0,0,0,0,0,0,0
0,0,51,-120,-2238,597,-33,-3,218,0,0,0,0,0,0,0,0,0,0,0
0,0,51,-129,-2226,597,-34,-2,221,0,0,0,0,0,0,0,0,0,0,0
0,0,52,-124,-2232,595,-31,-2,222,0,0,0,0,0,0,0,0,0,0,0
0,0,58,-124,-2219,596,-31,-3,241,0,0,0,0,0,0,0,0,0,0,0
0,0,54,-125,-2219,595,-32,-4,233,0,0,0,0,0,0,0,0,0,0,0
0,0,52,-127,-2234,595,-32,-1,217,0,0,0,0,0,0,0,0,0,0,0
0,0,47,-121,-2235,597,-33,-3,216,0,0,0,0,0,0,0,0,0,0,0
0,0,48,-124,-2243,597,-31,-1,210,0,0,0,0,0,0,0,0,0,0,0
0,0,55,-121,-2223,595,-32,-2,236,0,0,0,0,0,0,0,0,0,0,0
0,0,61,-121,-2233,596,-32,-2,233,0,0,0,0,0,0,0,0,0,0,0
0,0,49,-122,-2236,597,-32,-2,218,0,0,0,0,0,0,0,0,0,0,0
0,0,49,-122,-2244,596,-32,-3,208,0,0,0,0,0,0,0,0,0,0,0
0,0,46,-126,-2225,594,-31,-2,220,0,0,0,0,0,0,0,0,0,0,0
0,0,47,-127,-2226,595,-31,-2,220,0,0,0,0,0,0,0,0,0,0,0
0,0,55,-120,-2228,595,-31,-2,233,0,0,0,0,0,0,0,0,0,0,0
0,0,48,-114,-2237,594,-32,-1,222,0,0,0,0,0,0,0,0,0,0,0
0,0,45,-119,-2230,594,-33,-3,218,0,0,0,0,0,0,0,0,0,0,0
0,0,51,-121,-2230,596,-33,-2,225,0,0,0,0,0,0,0,0,0,0,0
0,0,53,-125,-2238,597,-32,-1,218,0,0,0,0,0,0,0,0,0,0,0
0,0,49,-122,-2234,595,-32,-2,218,0,0,0,0,0,0,0,0,0,0,0
0,0,53,-122,-2238,595,-31,-1,220,0,0,0,0,0,0,0,0,0,0,0
0,0,44,-124,-2228,596,-32,-1,219,0,0,0,0,0,0,0,0,0,0,0
0,0,44,-123,-2231,596,-33,-2,215,0,0,0,0,0,0,0,0,0,0,0
0,0,53,-119,-2234,594,-32,-1,225,0,0,0,0,0,0,0,0,0,0,0
0,0,50,-126,-2243,594,-32,-2,205,0,0,0,0,0,0,0,0,0,0,0
0,0,51,-125,-2227,594,-31,-2,224,0,0,0,0,0,0,0,0,0,0,0
0,0,51,-125,-2241,596,-31,-3,211,0,0,0,0,0,0,0,0,0,0,0
0,0,52,-120,-2227,597,-31,-1,234,0,0,0,0,0,0,0,0,0,0,0
0,0,48,-122,-2235,596,-30,-2,219,0,0,0,0,0,0,0,0,0,0,0
0,0,52,-128,-2232,595,-33,-2,216,0,0,0,0,0,0,0,0,0,0,0
0,0,40,-128,-2237,595,-32,-1,201,0,0,0,0,0,0,0,0,0,0,0
0,0,48,-120,-2230,596,-33,-1,224,0,0,0,0,0,0,0,0,0,0,0
0,0,53,-124,-2234,595,-33,0,222,0,0,0,0,0,0,0,0,0,0,0
0,0,51,-131,-2221,595,-32,-2,224,0,0,0,0,0,0,0,0,0,0,0
0,0,48,-126,-2230,595,-30,-3,218,0,0,0,0,0,0,0,0,0,0,0
0,0,52,-129,-2240,597,-31,-2,211,0,0,0,0,0,0,0,0,0,0,0
0,0,55,-127,-2229,595,-31,-2,225,0,0,0,0,0,0,0,0,0,0,0
0,0,59,-119,-2244,597,-32,-3,222,0,0,0,0,0,0,0,0,0,0,0
0,0,52,-121,-2227,596,-32,-3,229,0,0,0,0,0,0,0,0,0,0,0
0,0,49,-128,-2229,594,-33,-3,214,0,0,0,0,0,0,0,0,0,0,0
0,0,46,-123,-2231,595,-31,-3,217,0,0,0,0,0,0,0,0,0,0,0
0,0,45,-121,-2234,596,-32,-1,217,0,0,0,0,0,0,0,0,0,0,0
0,0,51,-116,-2231,595,-32,-1,230,0,0,0,0,0,0,0,0,0,0,0
0,0,47,-120,-2230,596,-32,-2,223,0,0,0,0,0,0,0,0,0,0,0
0,0,55,-115,-2242,595,-32,-2,223,0,0,0,0,0,0,0,0,0,0,0
0,0,42,-123,-2235,595,-31,-2,210,0,0,0,0,0,0,0,0,0,0,0
0,0,45,-122,-2235,596,-32,0,217,0,0,0,0,0,0,0,0,0,0,0
0,0,46,-124,-2236,595,-33,-1,211,0,0,0,0,0,0,0,0,0,0,0
0,0,53,-121,-2234,595,-32,0,226,0,0,0,0,0,0,0,0,0,0,0
0,0,52,-119,-2231,595,-32,-1,228,0,0,0,0,0,0,0,0,0,0,0
0,0,52,-115,-2236,596,-31,-2,228,0,0,0,0,0,0,0,0,0,0,0
0,0,53,-119,-2231,595,-31,-1,230,0,0,0,0,0,0,0,0,0,0,0
0,0,50,-123,-2222,596,-32,-2,231,0,0,0,0,0,0,0,0,0,0,0
0,0,50,-132,-2233,597,-30,-1,215,0,0,0,0,0,0,0,0,0,0,0
0,0,42,-118,-2231,596,-32,-2,219,0,0,0,0,0,0,0,0,0,0,0
0,0,52,-119,-2244,595,-31,-2,215,0,0,0,0,0,0,0,0,0,0,0
0,0,53,-125,-2237,595,-30,-3,217,0,0,0,0,0,0,0,0,0,0,0
0,0,50,-120,-2239,596,-32,-1,218,0,0,0,0,0,0,0,0,0,0,0
0,0,52,-130,-2227,595,-31,-3,220,0,0,0,0,0,0,0,0,0,0,0
0,0,49,-117,-2231,595,-31,-2,227,0,0,0,0,0,0,0,0,0,0,0
0,0,52,-129,-2240,596,-32,-1,210,0,0,0,0,0,0,0,0,0,0,0
0,0,47,-123,-2238,597,-31,-1,215,0,0,0,0,0,0,0,0,0,0,0
0,0,54,-121,-2240,594,-33,0,219,0,0,0,0,0,0,0,0,0,0,0
0,0,50,-126,-2227,596,-33,-2,222,0,0,0,0,0,0,0,0,0,0,0
0,0,45,-126,-2241,595,-31,-2,204,0,0,0,0,0,0,0,0,0,0,0
0,0,48,-116,-2243,595,-32,-2,214,0,0,0,0,0,0,0,0,0,0,0
0,0,43,-125,-2223,596,-32,-1,222,0,0,0,0,0,0,0,0,0,0,0
0,0,53,-120,-2238,595,-33,-2,219,0,0,0,0,0,0,0,0,0,0,0
0,0,44,-119,-2232,595,-33,-4,215,0,0,0,0,0,0,0,0,0,0,0
0,0,43,-127,-2239,596,-33,-3,201,0,0,0,0,0,0,0,0,0,0,0
0,0,49,-119,-2232,596,-31,-2,225,0,0,0,0,0,0,0,0,0,0,0
0,0,47,-117,-2232,597,-32,0,228,0,0,0,0,0,0,0,0,0,0,0
0,0,50,-121,-2243,596,-33,-1,212,0,0,0,0,0,0,0,0,0,0,0
0,0,44,-119,-2231,597,-34,-3,218,0,0,0,0,0,0,0,0,0,0,0
0,0,43,-128,-2232,596,-33,-3,207,0,0,0,0,0,0,0,0,0,0,0
0,0,50,-125,-2234,595,-30,-2,218,0,0,0,0,0,0,0,0,0,0,0
0,0,51,-122,-2231,596,-32,-1,225,0,0,0,0,0,0,0,0,0,0,0
0,0,55,-128,-2224,595,-33,-1,228,0,0,0,0,0,0,0,0,0,0,0
0,0,50,-126,-2236,596,-33,-2,213,0,0,0,0,0,0,0,0,0,0,0
0,0,43,-126,-2239,597,-31,-2,206,0,0,0,0,0,0,0,0,0,0,0
0,0,48,-124,-2241,596,-31,-2,210,0,0,0,0,0,0,0,0,0,0,0
0,0,50,-130,-2231,595,-30,-2,216,0,0,0,0,0,0,0,0,0,0,0
0,0,44,-124,-2245,595,-30,-2,202,0,0,0,0,0,0,0,0,0,0,0
0,0,48,-122,-2248,596,-32,-1,205,0,0,0,0,0,0,0,0,0,0,0
0,0,54,-127,-2226,594,-32,-2,225,0,0,0,0,0,0,0,0,0,0,0
0,0,48,-129,-2231,594,-31,-2,213,0,0,0,0,0,0,0,0,0,0,0
0,0,48,-121,-2235,596,-32,-2,218,0,0,0,0,0,0,0,0,0,0,0
0,0,49,-116,-2238,594,-33,-3,217,0,0,0,0,0,0,0,0,0,0,0
0,0,46,-122,-2241,596,-32,-2,209,0,0,0,0,0,0,0,0,0,0,0
0,0,48,-124,-2227,595,-31,0,226,0,0,0,0,0,0,0,0,0,0,0
0,0,55,-121,-2225,596,-31,-3,235,0,0,0,0,0,0,0,0,0,0,0
0,0,52,-122,-2237,595,-32,-2,218,0,0,0,0,0,0,0,0,0,0,0
0,0,47,-122,-2233,595,-31,-2,218,0,0,0,0,0,0,0,0,0,0,0
0,0,50,-123,-2231,596,-32,-2,222,0,0,0,0,0,0,0,0,0,0,0
0,0,52,-123,-2238,596,-32,-2,217,0,0,0,0,0,0,0,0,0,0,0
0,0,57,-128,-2237,595,-33,-3,215,0,0,0,0,0,0,0,0,0,0,0
0,0,53,-125,-2231,597,-31,-2,225,0,0,0,0,0,0,0,0,0,0,0
0,0,54,-129,-2225,595,-31,-2,226,0,0,0,0,0,0,0,0,0,0,0
0,0,47,-123,-2238,595,-33,-3,209,0,0,0,0,0,0,0,0,0,0,0
0,0,48,-120,-2241,595,-31,-2,213,0,0,0,0,0,0,0,0,0,0,0
0,0,53,-118,-2228,596,-32,-2,233,0,0,0,0,0,0,0,0,0,0,0
0,0,49,-117,-2226,595,-32,-2,231,0,0,0,0,0,0,0,0,0,0,0
0,0,47,-128,-2239,595,-33,-2,204,0,0,0,0,0,0,0,0,0,0,0
0,0,49,-128,-2230,596,-33,0,219,0,0,0,0,0,0,0,0,0,0,0
0,0,52,-123,-2216,596,-31,-1,241,0,0,0,0,0,0,0,0,0,0,0
0,0,53,-119,-2232,596,-32,-2,228,0,0,0,0,0,0,0,0,0,0,0
0,0,48,-126,-2238,596,-34,-4,206,0,0,0,0,0,0,0,0,0,0,0
0,0,50,-123,-2230,596,-32,-2,223,0,0,0,0,0,0,0,0,0,0,0
0,0,53,-126,-2230,596,-32,-1,224,0,0,0,0,0,0,0,0,0,0,0
0,0,45,-132,-2228,594,-34,-2,207,0,0,0,0,0,0,0,0,0,0,0
0,0,48,-120,-2233,596,-35,-2,218,0,0,0,0,0,0,0,0,0,0,0
0,0,51,-117,-2240,596,-33,-2,219,0,0,0,0,0,0,0,0,0,0,0
0,0,46,-126,-2232,595,-32,-2,213,0,0,0,0,0,0,0,0,0,0,0
0,0,54,-116,-2244,596,-32,-2,220,0,0,0,0,0,0,0,0,0,0,0
0,0,49,-115,-2243,596,-31,-2,218,0,0,0,0,0,0,0,0,0,0,0
0,0,46,-118,-2233,595,-33,-3,218,0,0,0,0,0,0,0,0,0,0,0
0,0,54,-123,-2237,596,-31,-2,221,0,0,0,0,0,0,0,0,0,0,0
0,0,50,-124,-2244,595,-32,-1,208,0,0,0,0,0,0,0,0,0,0,0
0,0,47,-128,-2237,596,-32,-2,208,0,0,0,0,0,0,0,0,0,0,0
0,0,51,-126,-2230,595,-32,-2,220,0,0,0,0,0,0,0,0,0,0,0
0,0,47,-127,-2225,596,-33,-1,221,0,0,0,0,0,0,0,0,0,0,0
0,0,55,-120,-2245,596,-32,-3,215,0,0,0,0,0,0,0,0,0,0,0
0,0,52,-119,-2239,596,-31,-2,221,0,0,0,0,0,0,0,0,0,0,0
0,0,43,-129,-2234,595,-32,-2,205,0,0,0,0,0,0,0,0,0,0,0
0,0,50,-122,-2237,594,-31,-3,215,0,0,0,0,0,0,0,0,0,0,0
0,0,58,-121,-2236,595,-32,-1,227,0,0,0,0,0,0,0,0,0,0,0
0,0,51,-119,-2233,596,-34,-2,223,0,0,0,0,0,0,0,0,0,0,0
0,0,46,-126,-2225,596,-31,-1,223,0,0,0,0,0,0,0,0,0,0,0
0,0,43,-125,-2238,597,-33,-1,207,0,0,0,0,0,0,0,0,0,0,0
0,0,43,-122,-2247,597,-33,-3,199,0,0,0,0,0,0,0,0,0,0,0
0,0,45,-119,-2238,595,-33,-2,212,0,0,0,0,0,0,0,0,0,0,0
0,0,51,-126,-2234,595,-33,-2,215,0,0,0,0,0,0,0,0,0,0,0
0,0,53,-130,-2217,595,-32,-2,231,0,0,0,0,0,0,0,0,0,0,0
0,0,48,-125,-2233,594,-32,-3,213,0,0,0,0,0,0,0,0,0,0,0
0,0,52,-127,-2237,595,-32,0,216,0,0,0,0,0,0,0,0,0,0,0
0,0,48,-127,-2227,595,-34,-1,218,0,0,0,0,0,0,0,0,0,0,0
0,0,55,-130,-2237,595,-33,-2,212,0,0,0,0,0,0,0,0,0,0,0
0,0,51,-128,-2236,596,-31,-1,215,0,0,0,0,0,0,0,0,0,0,0
0,0,52,-119,-2236,595,-33,-3,220,0,0,0,0,0,0,0,0,0,0,0
0,0,49,-128,-2238,597,-32,-2,210,0,0,0,0,0,0,0,0,0,0,0
0,0,48,-112,-2233,595,-32,-3,227,0,0,0,0,0,0,0,0,0,0,0
0,0,44,-124,-2231,596,-33,-2,214,0,0,0,0,0,0,0,0,0,0,0
0,0,43,-127,-2240,594,-32,-1,201,0,0,0,0,0,0,0,0,0,0,0
0,0,41,-119,-2243,594,-32,-1,204,0,0,0,0,0,0,0,0,0,0,0
0,0,54,-121,-2239,594,-33,-1,218,0,0,0,0,0,0,0,0,0,0,0
0,0,46,-122,-2236,595,-31,-2,214,0,0,0,0,0,0,0,0,0,0,0
0,0,42,-125,-2230,595,-32,-2,212,0,0,0,0,0,0,0,0,0,0,0
0,0,41,-125,-2237,595,-32,-2,204,0,0,0,0,0,0,0,0,0,0,0
0,0,50,-122,-2237,595,-32,-1,217,0,0,0,0,0,0,0,0,0,0,0
0,0,49,-119,-2233,597,-32,-1,225,0,0,0,0,0,0,0,0,0,0,0
0,0,53,-117,-2232,596,-32,-3,229,0,0,0,0,0,0,0,0,0,0,0
0,0,48,-113,-2235,596,-32,-1,227,0,0,0,0,0,0,0,0,0,0,0
0,0,46,-123,-2236,595,-32,0,215,0,0,0,0,0,0,0,0,0,0,0
0,0,43,-116,-2238,595,-32,-3,213,0,0,0,0,0,0,0,0,0,0,0
0,0,48,-116,-2227,595,-32,-1,231,0,0,0,0,0,0,0,0,0,0,0
0,0,44,-119,-2234,594,-33,-1,215,0,0,0,0,0,0,0,0,0,0,0
0,0,55,-125,-2235,595,-32,-2,220,0,0,0,0,0,0,0,0,0,0,0
0,0,53,-123,-2235,595,-32,-3,219,0,0,0,0,0,0,0,0,0,0,0
0,0,50,-124,-2232,596,-34,-2,218,0,0,0,0,0,0,0,0,0,0,0
0,0,54,-128,-2237,596,-32,-1,216,0,0,0,0,0,0,0,0,0,0,0
0,0,48,-121,-2231,596,-33,0,224,0,0,0,0,0,0,0,0,0,0,0
0,0,52,-119,-2235,596,-31,0,228,0,0,0,0,0,0,0,0,0,0,0
0,0,58,-130,-2232,595,-32,-1,222,0,0,0,0,0,0,0,0,0,0,0
0,0,52,-123,-2243,596,-31,-1,214,0,0,0,0,0,0,0,0,0,0,0
0,0,50,-124,-2241,595,-34,-2,208,0,0,0,0,0,0,0,0,0,0,0
0,0,49,-119,-2233,595,-32,-3,221,0,0,0,0,0,0,0,0,0,0,0
0,0,46,-123,-2243,595,-30,-2,207,0,0,0,0,0,0,0,0,0,0,0
0,0,45,-119,-2237,594,-30,-2,215,0,0,0,0,0,0,0,0,0,0,0
0,0,58,-132,-2241,595,-32,-2,210,0,0,0,0,0,0,0,0,0,0,0
0,0,47,-124,-2231,596,-32,-1,219,0,0,0,0,0,0,0,0,0,0,0
0,0,42,-127,-2238,595,-32,-2,202,0,0,0,0,0,0,0,0,0,0,0
0,0,47,-128,-2230,595,-31,-2,215,0,0,0,0,0,0,0,0,0,0,0
0,0,45,-125,-2236,594,-32,-2,208,0,0,0,0,0,0,0,0,0,0,0
0,0,44,-124,-2237,596,-32,-2,209,0,0,0,0,0,0,0,0,0,0,0
0,0,42,-125,-2237,596,-33,-2,205,0,0,0,0,0,0,0,0,0,0,0
0,0,50,-121,-2233,597,-32,-3,222,0,0,0,0,0,0,0,0,0,0,0
0,0,56,-122,-2231,596,-33,-2,228,0,0,0,0,0,0,0,0,0,0,0
0,0,48,-115,-2230,597,-32,-1,231,0,0,0,0,0,0,0,0,0,0,0
0,0,48,-123,-2232,596,-32,-2,219,0,0,0,0,0,0,0,0,0,0,0
0,0,60,-123,-2236,595,-32,-1,227,0,0,0,0,0,0,0,0,0,0,0
0,0,55,-119,-2229,596,-32,-2,233,0,0,0,0,0,0,0,0,0,0,0
0,0,51,-117,-2225,596,-31,-3,235,0,0,0,0,0,0,0,0,0,0,0
0,0,49,-121,-2241,595,-33,-3,210,0,0,0,0,0,0,0,0,0,0,0
0,0,49,-118,-2237,594,-31,-2,219,0,0,0,0,0,0,0,0,0,0,0
0,0,47,-118,-2225,596,-32,-1,231,0,0,0,0,0,0,0,0,0,0,0
0,0,41,-121,-2231,596,-32,-2,215,0,0,0,0,0,0,0,0,0,0,0
0,0,48,-118,-2234,595,-32,-2,221,0,0,0,0,0,0,0,0,0,0,0
0,0,51,-119,-2238,595,-32,-3,218,0,0,0,0,0,0,0,0,0,0,0
0,0,51,-114,-2239,595,-34,-3,220,0,0,0,0,0,0,0,0,0,0,0
0,0,45,-119,-2239,598,-32,-2,215,0,0,0,0,0,0,0,0,0,0,0
0,0,45,-126,-2224,596,-31,-1,223,0,0,0,0,0,0,0,0,0,0,0
0,0,46,-128,-2229,595,-32,-2,214,0,0,0,0,0,0,0,0,0,0,0
0,0,50,-126,-2242,596,-31,-1,210,0,0,0,0,0,0,0,0,0,0,0
0,0,47,-118,-2242,595,-32,-1,213,0,0,0,0,0,0,0,0,0,0,0
0,0,51,-122,-2240,595,-32,0,217,0,0,0,0,0,0,0,0,0,0,0
0,0,53,-123,-2232,597,-32,-3,224,0,0,0,0,0,0,0,0,0,0,0
0,0,51,-119,-2237,596,-32,-2,221,0,0,0,0,0,0,0,0,0,0,0
0,0,44,-126,-2227,596,-32,-2,217,0,0,0,0,0,0,0,0,0,0,0
0,0,55,-125,-2232,595,-32,-2,223,0,0,0,0,0,0,0,0,0,0,0
0,0,44,-119,-2242,594,-32,-1,208,0,0,0,0,0,0,0,0,0,0,0
0,0,43,-125,-2236,596,-31,-2,209,0,0,0,0,0,0,0,0,0,0,0
0,0,50,-118,-2238,597,-32,-2,221,0,0,0,0,0,0,0,0,0,0,0
0,0,50,-124,-2227,595,-32,-1,225,0,0,0,0,0,0,0,0,0,0,0
0,0,49,-124,-2234,595,-32,-1,217,0,0,0,0,0,0,0,0,0,0,0
0,0,48,-117,-2226,595,-31,-1,232,0,0,0,0,0,0,0,0,0,0,0
0,0,38,-119,-2230,595,-32,-1,215,0,0,0,0,0,0,0,0,0,0,0
0,0,49,-125,-2241,595,-31,0,212,0,0,0,0,0,0,0,0,0,0,0
0,0,50,-120,-2236,595,-32,-2,219,0,0,0,0,0,0,0,0,0,0,0
0,0,49,-126,-2223,596,-32,-3,225,0,0,0,0,0,0,0,0,0,0,0
0,0,50,-124,-2228,596,-32,-3,223,0,0,0,0,0,0,0,0,0,0,0
0,0,47,-131,-2241,596,-31,-1,203,0,0,0,0,0,0,0,0,0,0,0
0,0,46,-122,-2233,596,-32,-2,217,0,0,0,0,0,0,0,0,0,0,0
0,0,49,-123,-2237,596,-31,-2,216,0,0,0,0,0,0,0,0,0,0,0
0,0,60,-118,-2238,595,-31,-2,230,0,0,0,0,0,0,0,0,0,0,0
0,0,55,-124,-2233,596,-31,-1,226,0,0,0,0,0,0,0,0,0,0,0
0,0,54,-122,-2238,598,-32,-3,221,0,0,0,0,0,0,0,0,0,0,0
0,0,51,-121,-2244,595,-34,-2,209,0,0,0,0,0,0,0,0,0,0,0
0,0,50,-123,-2229,595,-33,-2,222,0,0,0,0,0,0,0,0,0,0,0
0,0,50,-124,-2229,595,-31,0,226,0,0,0,0,0,0,0,0,0,0,0
0,0,50,-118,-2246,596,-32,-2,212,0,0,0,0,0,0,0,0,0,0,0
0,0,53,-127,-2235,596,-32,-1,218,0,0,0,0,0,0,0,0,0,0,0
0,0,46,-116,-2236,595,-32,-2,219,0,0,0,0,0,0,0,0,0,0,0
0,0,49,-116,-2229,595,-31,-2,230,0,0,0,0,0,0,0,0,0,0,0
0,0,46,-121,-2225,597,-33,-1,227,0,0,0,0,0,0,0,0,0,0,0
0,0,46,-125,-2234,596,-32,-2,213,0,0,0,0,0,0,0,0,0,0,0
0,0,52,-121,-2225,596,-32,-1,233,0,0,0,0,0,0,0,0,0,0,0
0,0,50,-114,-2227,595,-30,-3,235,0,0,0,0,0,0,0,0,0,0,0
0,0,52,-116,-2230,596,-33,-1,232,0,0,0,0,0,0,0,0,0,0,0
0,0,49,-122,-2240,596,-32,-2,213,0,0,0,0,0,0,0,0,0,0,0
0,0,49,-126,-2234,595,-31,-1,216,0,0,0,0,0,0,0,0,0,0,0
0,0,46,-121,-2235,595,-30,-2,217,0,0,0,0,0,0,0,0,0,0,0
0,0,50,-122,-2236,596,-33,-1,218,0,0,0,0,0,0,0,0,0,0,0
0,0,48,-115,-2239,596,-31,-2,221,0,0,0,0,0,0,0,0,0,0,0
0,0,54,-119,-2230,597,-31,-2,233,0,0,0,0,0,0,0,0,0,0,0
0,0,51,-125,-2236,597,-31,-3,217,0,0,0,0,0,0,0,0,0,0,0
0,0,52,-123,-2238,596,-32,-1,218,0,0,0,0,0,0,0,0,0,0,0
0,0,51,-118,-2229,595,-32,0,232,0,0,0,0,0,0,0,0,0,0,0
0,0,47,-127,-2233,596,-32,0,216,0,0,0,0,0,0,0,0,0,0,0
0,0,47,-116,-2243,594,-32,-1,213,0,0,0,0,0,0,0,0,0,0,0
0,0,54,-120,-2228,596,-33,-3,230,0,0,0,0,0,0,0,0,0,0,0
0,0,47,-118,-2233,596,-32,-3,221,0,0,0,0,0,0,0,0,0,0,0
0,0,53,-124,-2224,597,-32,-2,232,0,0,0,0,0,0,0,0,0,0,0
0,0,55,-124,-2240,596,-32,-2,217,0,0,0,0,0,0,0,0,0,0,0
0,0,49,-129,-2228,595,-33,-2,216,0,0,0,0,0,0,0,0,0,0,0
0,0,47,-123,-2240,593,-33,-1,207,0,0,0,0,0,0,0,0,0,0,0
0,0,47,-127,-2229,595,-32,-1,217,0,0,0,0,0,0,0,0,0,0,0
0,0,45,-122,-2242,596,-32,0,210,0,0,0,0,0,0,0,0,0,0,0
0,0,55,-120,-2236,597,-32,-1,227,0,0,0,0,0,0,0,0,0,0,0
0,0,51,-125,-2237,597,-32,-1,217,0,0,0,0,0,0,0,0,0,0,0
0,0,48,-127,-2238,595,-32,-3,207,0,0,0,0,0,0,0,0,0,0,0
0,0,51,-123,-2239,595,-32,-4,212,0,0,0,0,0,0,0,0,0,0,0
0,0,55,-124,-2233,595,-32,-2,223,0,0,0,0,0,0,0,0,0,0,0
0,0,47,-122,-2232,596,-32,-4,217,0,0,0,0,0,0,0,0,0,0,0
0,0,53,-127,-2240,595,-32,-1,212,0,0,0,0,0,0,0,0,0,0,0
0,0,45,-129,-2230,595,-33,-2,210,0,0,0,0,0,0,0,0,0,0,0
0,0,55,-116,-2220,597,-33,-2,245,0,0,0,0,0,0,0,0,0,0,0
0,0,54,-123,-2236,595,-33,-2,219,0,0,0,0,0,0,0,0,0,0,0
0,0,52,-122,-2228,597,-32,-2,229,0,0,0,0,0,0,0,0,0,0,0
0,0,53,-119,-2239,596,-32,-4,219,0,0,0,0,0,0,0,0,0,0,0
0,0,50,-119,-2227,596,-33,-2,229,0,0,0,0,0,0,0,0,0,0,0
0,0,52,-121,-2240,594,-31,-3,215,0,0,0,0,0,0,0,0,0,0,0
0,0,52,-123,-2226,596,-31,-3,229,0,0,0,0,0,0,0,0,0,0,0
0,0,50,-128,-2232,597,-30,-2,219,0,0,0,0,0,0,0,0,0,0,0
0,0,45,-121,-2229,597,-33,-3,220,0,0,0,0,0,0,0,0,0,0,0
0,0,50,-126,-2231,596,-32,-2,219,0,0,0,0,0,0,0,0,0,0,0
0,0,51,-121,-2236,596,-31,-3,220,0,0,0,0,0,0,0,0,0,0,0
0,0,39,-124,-2244,595,-32,-1,197,0,0,0,0,0,0,0,0,0,0,0
0,0,52,-131,-2226,596,-32,-3,220,0,0,0,0,0,0,0,0,0,0,0
0,0,44,-127,-2225,596,-31,-2,219,0,0,0,0,0,0,0,0,0,0,0
0,0,43,-125,-2230,596,-33,-1,214,0,0,0,0,0,0,0,0,0,0,0
0,0,43,-125,-2226,595,-32,-1,218,0,0,0,0,0,0,0,0,0,0,0
0,0,48,-124,-2222,595,-33,-2,226,0,0,0,0,0,0,0,0,0,0,0
0,0,49,-121,-2240,595,-31,-1,215,0,0,0,0,0,0,0,0,0,0,0
0,0,49,-125,-2235,596,-32,-2,215,0,0,0,0,0,0,0,0,0,0,0
0,0,49,-120,-2238,596,-31,-3,217,0,0,0,0,0,0,0,0,0,0,0
0,0,48,-131,-2236,595,-33,-2,205,0,0,0,0,0,0,0,0,0,0,0
0,0,48,-123,-2239,595,-32,-1,212,0,0,0,0,0,0,0,0,0,0,0
0,0,52,-118,-2235,594,-31,-1,225,0,0,0,0,0,0,0,0,0,0,0
0,0,52,-121,-2225,594,-32,-2,230,0,0,0,0,0,0,0,0,0,0,0
0,0,51,-123,-2237,595,-30,-3,217,0,0,0,0,0,0,0,0,0,0,0
0,0,47,-125,-2234,595,-32,-3,212,0,0,0,0,0,0,0,0,0,0,0
0,0,50,-120,-2231,596,-31,-3,225,0,0,0,0,0,0,0,0,0,0,0
0,0,50,-124,-2250,597,-33,-2,202,0,0,0,0,0,0,0,0,0,0,0
0,0,46,-131,-2236,595,-32,-2,204,0,0,0,0,0,0,0,0,0,0,0
0,0,52,-124,-2236,595,-31,-3,217,0,0,0,0,0,0,0,0,0,0,0
0,0,54,-113,-2228,596,-31,-1,241,0,0,0,0,0,0,0,0,0,0,0
0,0,48,-115,-2228,594,-33,-2,228,0,0,0,0,0,0,0,0,0,0,0
0,0,43,-122,-2235,596,-33,-2,211,0,0,0,0,0,0,0,0,0,0,0
0,0,51,-128,-2229,597,-32,-2,221,0,0,0,0,0,0,0,0,0,0,0
0,0,47,-131,-2235,596,-33,-3,205,0,0,0,0,0,0,0,0,0,0,0
0,0,46,-126,-2221,598,-32,-2,227,0,0,0,0,0,0,0,0,0,0,0
0,0,41,-121,-2240,596,-32,-1,207,0,0,0,0,0,0,0,0,0,0,0
0,0,54,-123,-2239,595,-32,-1,218,0,0,0,0,0,0,0,0,0,0,0
0,0,51,-129,-2243,595,-32,-2,204,0,0,0,0,0,0,0,0,0,0,0
0,0,54,-127,-2233,595,-32,-2,219,0,0,0,0,0,0,0,0,0,0,0
0,0,51,-126,-2234,596,-32,-3,216,0,0,0,0,0,0,0,0,0,0,0
0,0,44,-131,-2231,596,-32,-3,207,0,0,0,0,0,0,0,0,0,0,0
0,0,50,-126,-2232,596,-32,-1,219,0,0,0,0,0,0,0,0,0,0,0
0,0,48,-123,-2230,595,-33,-3,218,0,0,0,0,0,0,0,0,0,0,0
0,0,49,-122,-2239,595,-33,-3,211,0,0,0,0,0,0,0,0,0,0,0
0,0,45,-127,-2235,594,-31,-3,207,0,0,0,0,0,0,0,0,0,0,0
0,0,54,-120,-2244,595,-31,-3,215,0,0,0,0,0,0,0,0,0,0,0
0,0,55,-125,-2244,596,-31,-3,212,0,0,0,0,0,0,0,0,0,0,0
0,0,43,-120,-2228,595,-32,-3,219,0,0,0,0,0,0,0,0,0,0,0
0,0,48,-128,-2240,595,-32,-1,206,0,0,0,0,0,0,0,0,0,0,0
0,0,50,-124,-2246,595,-33,-2,204,0,0,0,0,0,0,0,0,0,0,0
0,0,56,-125,-2231,597,-33,-1,227,0,0,0,0,0,0,0,0,0,0,0
0,0,56,-123,-2239,596,-31,-2,221,0,0,0,0,0,0,0,0,0,0,0
0,0,47,-127,-2225,597,-32,-2,222,0,0,0,0,0,0,0,0,0,0,0
0,0,52,-116,-2233,595,-32,-2,228,0,0,0,0,0,0,0,0,0,0,0
0,0,42,-119,-2233,595,-31,-2,216,0,0,0,0,0,0,0,0,0,0,0
0,0,48,-120,-2234,596,-31,-2,221,0,0,0,0,0,0,0,0,0,0,0
0,0,43,-118,-2238,596,-34,-1,212,0,0,0,0,0,0,0,0,0,0,0
0,0,58,-116,-2227,596,-32,-3,240,0,0,0,0,0,0,0,0,0,0,0
0,0,52,-124,-2239,597,-33,-1,216,0,0,0,0,0,0,0,0,0,0,0
0,0,51,-127,-2233,597,-32,-2,218,0,0,0,0,0,0,0,0,0,0,0
0,0,47,-122,-2226,596,-32,-2,225,0,0,0,0,0,0,0,0,0,0,0
0,0,53,-124,-2237,598,-31,-3,220,0,0,0,0,0,0,0,0,0,0,0
0,0,41,-118,-2224,596,-31,-2,226,0,0,0,0,0,0,0,0,0,0,0
0,0,45,-124,-2235,596,-32,-3,211,0,0,0,0,0,0,0,0,0,0,0
0,0,51,-124,-2238,596,-33,-2,214,0,0,0,0,0,0,0,0,0,0,0
0,0,54,-123,-2231,595,-32,0,228,0,0,0,0,0,0,0,0,0,0,0
0,0,48,-123,-2237,597,-32,-2,215,0,0,0,0,0,0,0,0,0,0,0
0,0,46,-130,-2238,596,-31,-1,206,0,0,0,0,0,0,0,0,0,0,0
0,0,42,-129,-2234,595,-33,-4,201,0,0,0,0,0,0,0,0,0,0,0
0,0,48,-123,-2238,595,-32,-2,212,0,0,0,0,0,0,0,0,0,0,0
0,0,49,-124,-2227,594,-32,-3,221,0,0,0,0,0,0,0,0,0,0,0
0,0,57,-126,-2235,596,-32,-2,222,0,0,0,0,0,0,0,0,0,0,0
0,0,50,-123,-2240,596,-32,-2,213,0,0,0,0,0,0,0,0,0,0,0
0,0,46,-124,-2228,596,-32,-2,220,0,0,0,0,0,0,0,0,0,0,0
0,0,56,-120,-2238,595,-32,-1,224,0,0,0,0,0,0,0,0,0,0,0
0,0,48,-125,-2234,595,-31,-2,215,0,0,0,0,0,0,0,0,0,0,0
0,0,46,-122,-2232,595,-32,-2,217,0,0,0,0,0,0,0,0,0,0,0
0,0,51,-119,-2217,595,-32,-1,241,0,0,0,0,0,0,0,0,0,0,0
0,0,47,-120,-2237,596,-32,-2,216,0,0,0,0,0,0,0,0,0,0,0
0,0,45,-116,-2236,596,-32,-2,219,0,0,0,0,0,0,0,0,0,0,0
0,0,52,-125,-2239,595,-32,-2,213,0,0,0,0,0,0,0,0,0,0,0
0,0,50,-114,-2228,596,-31,-1,236,0,0,0,0,0,0,0,0,0,0,0
0,0,50,-118,-2229,595,-30,-2,230,0,0,0,0,0,0,0,0,0,0,0
0,0,49,-123,-2231,596,-33,-3,219,0,0,0,0,0,0,0,0,0,0,0
0,0,45,-122,-2235,597,-31,-2,216,0,0,0,0,0,0,0,0,0,0,0
0,0,44,-128,-2239,596,-32,-3,202,0,0,0,0,0,0,0,0,0,0,0
0,0,51,-130,-2241,596,-33,-1,206,0,0,0,0,0,0,0,0,0,0,0
0,0,44,-129,-2233,595,-32,-2,207,0,0,0,0,0,0,0,0,0,0,0
0,0,54,-120,-2229,596,-32,-2,231,0,0,0,0,0,0,0,0,0,0,0
0,0,48,-125,-2234,596,-32,-4,213,0,0,0,0,0,0,0,0,0,0,0
0,0,53,-120,-2247,596,-32,-3,211,0,0,0,0,0,0,0,0,0,0,0
0,0,52,-125,-2242,595,-32,-3,209,0,0,0,0,0,0,0,0,0,0,0
0,0,51,-125,-2234,594,-32,-2,216,0,0,0,0,0,0,0,0,0,0,0
0,0,53,-119,-2238,596,-31,-2,223,0,0,0,0,0,0,0,0,0,0,0
0,0,47,-125,-2233,596,-33,-1,215,0,0,0,0,0,0,0,0,0,0,0
0,0,53,-125,-2233,597,-33,-1,222,0,0,0,0,0,0,0,0,0,0,0
0,0,47,-125,-2238,595,-32,-1,210,0,0,0,0,0,0,0,0,0,0,0
0,0,48,-125,-2231,594,-31,-2,217,0,0,0,0,0,0,0,0,0,0,0
0,0,40,-119,-2237,595,-32,-1,210,0,0,0,0,0,0,0,0,0,0,0
0,0,52,-121,-2228,596,-33,-3,227,0,0,0,0,0,0,0,0,0,0,0
0,0,54,-127,-2238,595,-32,-2,214,0,0,0,0,0,0,0,0,0,0,0
0,0,44,-120,-2240,597,-31,-2,212,0,0,0,0,0,0,0,0,0,0,0
0,0,48,-122,-2246,598,-31,-2,209,0,0,0,0,0,0,0,0,0,0,0
0,0,56,-125,-2240,595,-31,-2,217,0,0,0,0,0,0,0,0,0,0,0
0,0,52,-115,-2238,596,-31,-2,226,0,0,0,0,0,0,0,0,0,0,0
0,0,49,-117,-2234,596,-32,-2,224,0,0,0,0,0,0,0,0,0,0,0
0,0,48,-124,-2239,596,-31,0,215,0,0,0,0,0,0,0,0,0,0,0
0,0,46,-123,-2235,596,-33,-2,213,0,0,0,0,0,0,0,0,0,0,0
0,0,50,-114,-2236,596,-32,-1,227,0,0,0,0,0,0,0,0,0,0,0
0,0,51,-125,-2221,596,-32,0,234,0,0,0,0,0,0,0,0,0,0,0
0,0,50,-132,-2234,595,-31,-2,210,0,0,0,0,0,0,0,0,0,0,0
0,0,49,-123,-2229,596,-32,-2,223,0,0,0,0,0,0,0,0,0,0,0
0,0,51,-117,-2225,597,-33,-3,234,0,0,0,0,0,0,0,0,0,0,0
0,0,44,-122,-2236,596,-32,-4,210,0,0,0,0,0,0,0,0,0,0,0
0,0,45,-123,-2242,597,-32,-3,206,0,0,0,0,0,0,0,0,0,0,0
0,0,48,-126,-2240,596,-30,-3,209,0,0,0,0,0,0,0,0,0,0,0
0,0,48,-122,-2239,596,-31,-1,215,0,0,0,0,0,0,0,0,0,0,0
0,0,61,-126,-2239,594,-32,-1,221,0,0,0,0,0,0,0,0,0,0,0
0,0,50,-121,-2229,596,-32,-3,225,0,0,0,0,0,0,0,0,0,0,0
0,0,46,-125,-2221,597,-33,-3,225,0,0,0,0,0,0,0,0,0,0,0
0,0,51,-127,-2232,596,-32,-1,219,0,0,0,0,0,0,0,0,0,0,0
0,0,54,-127,-2227,595,-33,-2,224,0,0,0,0,0,0,0,0,0,0,0
0,0,53,-126,-2228,595,-33,-2,223,0,0,0,0,0,0,0,0,0,0,0
0,0,45,-118,-2239,595,-31,-1,215,0,0,0,0,0,0,0,0,0,0,0
0,0,52,-116,-2235,597,-32,0,231,0,0,0,0,0,0,0,0,0,0,0
0,0,45,-128,-2236,596,-32,-1,208,0,0,0,0,0,0,0,0,0,0,0
0,0,48,-117,-2228,594,-32,-2,227,0,0,0,0,0,0,0,0,0,0,0
0,0,53,-115,-2226,595,-32,-1,238,0,0,0,0,0,0,0,0,0,0,0
0,0,49,-124,-2232,597,-32,-2,220,0,0,0,0,0,0,0,0,0,0,0
0,0,45,-120,-2221,596,-32,-3,229,0,0,0,0,0,0,0,0,0,0,0
0,0,45,-123,-2236,596,-33,-3,210,0,0,0,0,0,0,0,0,0,0,0
0,0,48,-129,-2239,597,-31,-1,209,0,0,0,0,0,0,0,0,0,0,0
0,0,48,-122,-2228,595,-30,-2,225,0,0,0,0,0,0,0,0,0,0,0
0,0,50,-117,-2224,596,-31,-2,236,0,0,0,0,0,0,0,0,0,0,0
0,0,44,-129,-2221,594,-33,-2,217,0,0,0,0,0,0,0,0,0,0,0
0,0,53,-128,-2240,595,-33,-1,210,0,0,0,0,0,0,0,0,0,0,0
0,0,45,-125,-2227,596,-32,-2,219,0,0,0,0,0,0,0,0,0,0,0
0,0,53,-123,-2232,597,-32,0,228,0,0,0,0,0,0,0,0,0,0,0
0,0,51,-124,-2236,597,-32,-3,217,0,0,0,0,0,0,0,0,0,0,0
0,0,47,-124,-2233,597,-32,-2,217,0,0,0,0,0,0,0,0,0,0,0
0,0,45,-125,-2231,595,-31,-3,214,0,0,0,0,0,0,0,0,0,0,0
0,0,51,-129,-2230,596,-32,-1,219,0,0,0,0,0,0,0,0,0,0,0
0,0,49,-130,-2236,595,-33,-2,207,0,0,0,0,0,0,0,0,0,0,0
0,0,49,-126,-2234,597,-31,-3,216,0,0,0,0,0,0,0,0,0,0,0
0,0,49,-129,-2246,596,-31,-2,201,0,0,0,0,0,0,0,0,0,0,0
0,0,50,-121,-2236,596,-32,-2,219,0,0,0,0,0,0,0,0,0,0,0
0,0,53,-121,-2229,594,-31,0,231,0,0,0,0,0,0,0,0,0,0,0
0,0,51,-123,-2237,596,-32,-2,217,0,0,0,0,0,0,0,0,0,0,0
0,0,49,-128,-2240,595,-32,-2,206,0,0,0,0,0,0,0,0,0,0,0
0,0,47,-116,-2238,595,-33,-4,215,0,0,0,0,0,0,0,0,0,0,0
0,0,46,-121,-2233,597,-33,-3,217,0,0,0,0,0,0,0,0,0,0,0
0,0,45,-124,-2235,596,-31,-3,212,0,0,0,0,0,0,0,0,0,0,0
0,0,51,-127,-2236,595,-31,0,217,0,0,0,0,0,0,0,0,0,0,0
0,0,53,-122,-2229,595,-32,-2,227,0,0,0,0,0,0,0,0,0,0,0
0,0,38,-126,-2235,596,-32,-3,202,0,0,0,0,0,0,0,0,0,0,0
0,0,42,-126,-2226,595,-32,-1,216,0,0,0,0,0,0,0,0,0,0,0
0,0,41,-121,-2231,596,-31,0,219,0,0,0,0,0,0,0,0,0,0,0
0,0,54,-120,-2243,597,-32,-1,219,0,0,0,0,0,0,0,0,0,0,0
0,0,43,-128,-2234,596,-34,-3,204,0,0,0,0,0,0,0,0,0,0,0
0,0,54,-127,-2243,597,-31,-2,212,0,0,0,0,0,0,0,0,0,0,0
0,0,52,-128,-2226,595,-32,-2,223,0,0,0,0,0,0,0,0,0,0,0
0,0,49,-130,-2232,596,-31,0,217,0,0,0,0,0,0,0,0,0,0,0
0,0,53,-126,-2244,597,-32,-2,210,0,0,0,0,0,0,0,0,0,0,0
0,0,51,-128,-2236,596,-32,-2,213,0,0,0,0,0,0,0,0,0,0,0
0,0,40,-132,-2236,596,-32,-1,199,0,0,0,0,0,0,0,0,0,0,0
0,0,48,-118,-2237,597,-31,-2,221,0,0,0,0,0,0,0,0,0,0,0
0,0,46,-121,-2241,596,-34,0,211,0,0,0,0,0,0,0,0,0,0,0
0,0,44,-118,-2230,597,-31,-1,225,0,0,0,0,0,0,0,0,0,0,0
0,0,46,-120,-2234,596,-33,-3,216,0,0,0,0,0,0,0,0,0,0,0
0,0,51,-120,-2237,594,-32,-2,218,0,0,0,0,0,0,0,0,0,0,0
0,0,42,-125,-2234,595,-32,-2,208,0,0,0,0,0,0,0,0,0,0,0
0,0,51,-126,-2241,596,-32,-2,210,0,0,0,0,0,0,0,0,0,0,0
0,0,56,-123,-2238,595,-32,-1,221,0,0,0,0,0,0,0,0,0,0,0
0,0,49,-126,-2233,594,-32,-1,215,0,0,0,0,0,0,0,0,0,0,0
0,0,47,-126,-2236,595,-32,-2,210,0,0,0,0,0,0,0,0,0,0,0
0,0,51,-124,-2228,596,-31,-2,226,0,0,0,0,0,0,0,0,0,0,0
0,0,49,-122,-2238,596,-33,-2,214,0,0,0,0,0,0,0,0,0,0,0
0,0,45,-124,-2228,596,-32,-1,220,0,0,0,0,0,0,0,0,0,0,0
0,0,49,-120,-2231,594,-31,-2,223,0,0,0,0,0,0,0,0,0,0,0
0,0,52,-123,-2230,595,-31,-2,225,0,0,0,0,0,0,0,0,0,0,0
0,0,54,-127,-2236,597,-31,-2,219,0,0,0,0,0,0,0,0,0,0,0
0,0,46,-120,-2242,595,-33,-2,208,0,0,0,0,0,0,0,0,0,0,0
0,0,46,-116,-2235,595,-31,-3,220,0,0,0,0,0,0,0,0,0,0,0
0,0,46,-119,-2234,595,-32,-1,219,0,0,0,0,0,0,0,0,0,0,0
0,0,52,-130,-2232,596,-32,-1,217,0,0,0,0,0,0,0,0,0,0,0
0,0,46,-127,-2242,596,-31,-1,205,0,0,0,0,0,0,0,0,0,0,0
0,0,50,-123,-2231,596,-31,-3,222,0,0,0,0,0,0,0,0,0,0,0
0,0,53,-123,-2232,597,-32,-3,224,0,0,0,0,0,0,0,0,0,0,0
0,0,51,-123,-2227,594,-32,-1,226,0,0,0,0,0,0,0,0,0,0,0
0,0,46,-116,-2236,594,-31,-1,220,0,0,0,0,0,0,0,0,0,0,0
0,0,46,-126,-2233,596,-33,0,215,0,0,0,0,0,0,0,0,0,0,0
0,0,54,-121,-2229,596,-33,-1,230,0,0,0,0,0,0,0,0,0,0,0
0,0,48,-120,-2224,596,-32,-1,231,0,0,0,0,0,0,0,0,0,0,0
0,0,46,-126,-2230,596,-32,-1,217,0,0,0,0,0,0,0,0,0,0,0
0,0,48,-124,-2235,596,-31,-2,216,0,0,0,0,0,0,0,0,0,0,0
0,0,47,-123,-2233,596,-33,-2,216,0,0,0,0,0,0,0,0,0,0,0
0,0,51,-126,-2236,596,-32,-2,215,0,0,0,0,0,0,0,0,0,0,0
0,0,52,-121,-2241,596,-30,-2,218,0,0,0,0,0,0,0,0,0,0,0
0,0,48,-125,-2235,594,-31,-1,214,0,0,0,0,0,0,0,0,0,0,0
0,0,50,-123,-2233,594,-32,-2,218,0,0,0,0,0,0,0,0,0,0,0
0,0,55,-120,-2234,596,-32,-1,228,0,0,0,0,0,0,0,0,0,0,0
0,0,43,-123,-2237,596,-32,-3,208,0,0,0,0,0,0,0,0,0,0,0
0,0,44,-126,-2238,595,-32,-3,204,0,0,0,0,0,0,0,0,0,0,0
0,0,52,-123,-2239,595,-33,-2,214,0,0,0,0,0,0,0,0,0,0,0
0,0,44,-123,-2239,596,-32,-2,208,0,0,0,0,0,0,0,0,0,0,0
0,0,48,-128,-2233,596,-32,-1,214,0,0,0,0,0,0,0,0,0,0,0
0,0,57,-124,-2240,594,-31,-3,217,0,0,0,0,0,0,0,0,0,0,0
0,0,53,-119,-2239,595,-33,-2,219,0,0,0,0,0,0,0,0,0,0,0
0,0,51,-126,-2226,597,-34,-2,224,0,0,0,0,0,0,0,0,0,0,0
0,0,54,-128,-2238,596,-32,-3,213,0,0,0,0,0,0,0,0,0,0,0
0,0,54,-124,-2239,595,-31,-3,216,0,0,0,0,0,0,0,0,0,0,0
0,0,54,-119,-2232,597,-32,-3,229,0,0,0,0,0,0,0,0,0,0,0
0,0,49,-119,-2240,596,-32,-2,216,0,0,0,0,0,0,0,0,0,0,0
0,0,44,-125,-2234,596,-33,-3,209,0,0,0,0,0,0,0,0,0,0,0
0,0,48,-124,-2229,596,-31,-2,222,0,0,0,0,0,0,0,0,0,0,0
0,0,57,-134,-2232,596,-32,-3,216,0,0,0,0,0,0,0,0,0,0,0
0,0,52,-124,-2242,597,-32,-3,212,0,0,0,0,0,0,0,0,0,0,0
0,0,53,-123,-2230,596,-31,-3,226,0,0,0,0,0,0,0,0,0,0,0
0,0,49,-115,-2234,596,-32,-2,226,0,0,0,0,0,0,0,0,0,0,0
0,0,45,-121,-2237,595,-31,-2,213,0,0,0,0,0,0,0,0,0,0,0
0,0,47,-126,-2236,598,-31,-2,214,0,0,0,0,0,0,0,0,0,0,0
0,0,47,-126,-2234,595,-31,-3,212,0,0,0,0,0,0,0,0,0,0,0
0,0,51,-121,-2230,596,-33,-2,225,0,0,0,0,0,0,0,0,0,0,0
0,0,48,-121,-2226,596,-31,-2,228,0,0,0,0,0,0,0,0,0,0,0
0,0,48,-121,-2231,594,-32,-2,220,0,0,0,0,0,0,0,0,0,0,0
0,0,51,-119,-2230,595,-32,-1,228,0,0,0,0,0,0,0,0,0,0,0
0,0,44,-120,-2252,596,-33,-1,198,0,0,0,0,0,0,0,0,0,0,0
0,0,45,-123,-2233,596,-32,-1,216,0,0,0,0,0,0,0,0,0,0,0
0,0,44,-132,-2236,597,-33,-1,203,0,0,0,0,0,0,0,0,0,0,0
0,0,53,-130,-2233,595,-30,-2,217,0,0,0,0,0,0,0,0,0,0,0
0,0,48,-124,-2237,596,-32,-2,213,0,0,0,0,0,0,0,0,0,0,0
0,0,52,-115,-2230,596,-32,-2,233,0,0,0,0,0,0,0,0,0,0,0
0,0,50,-127,-2232,594,-33,-2,214,0,0,0,0,0,0,0,0,0,0,0
0,0,48,-131,-2237,593,-32,-2,203,0,0,0,0,0,0,0,0,0,0,0
0,0,47,-126,-2225,595,-33,-2,220,0,0,0,0,0,0,0,0,0,0,0
0,0,45,-119,-2236,596,-31,-2,217,0,0,0,0,0,0,0,0,0,0,0
0,0,47,-127,-2242,594,-32,-2,202,0,0,0,0,0,0,0,0,0,0,0
0,0,44,-121,-2230,595,-33,-1,218,0,0,0,0,0,0,0,0,0,0,0
0,0,43,-133,-2232,596,-33,-2,203,0,0,0,0,0,0,0,0,0,0,0
0,0,53,-121,-2242,597,-31,-4,216,0,0,0,0,0,0,0,0,0,0,0
0,0,49,-114,-2235,596,-32,-3,225,0,0,0,0,0,0,0,0,0,0,0
0,0,45,-126,-2239,596,-33,-2,205,0,0,0,0,0,0,0,0,0,0,0
0,0,47,-127,-2230,596,-32,-2,216,0,0,0,0,0,0,0,0,0,0,0
0,0,47,-124,-2228,595,-31,-3,220,0,0,0,0,0,0,0,0,0,0,0
0,0,47,-122,-2236,595,-32,-2,214,0,0,0,0,0,0,0,0,0,0,0
0,0,52,-127,-2235,597,-31,-2,218,0,0,0,0,0,0,0,0,0,0,0
0,0,49,-126,-2240,596,-32,-3,208,0,0,0,0,0,0,0,0,0,0,0
0,0,49,-131,-2243,596,-32,-2,201,0,0,0,0,0,0,0,0,0,0,0
0,0,55,-126,-2240,596,-33,-2,214,0,0,0,0,0,0,0,0,0,0,0
0,0,50,-128,-2231,597,-31,-2,219,0,0,0,0,0,0,0,0,0,0,0
0,0,52,-118,-2225,596,-33,-1,235,0,0,0,0,0,0,0,0,0,0,0
0,0,50,-122,-2245,596,-32,-3,208,0,0,0,0,0,0,0,0,0,0,0
0,0,48,-123,-2235,596,-32,-3,215,0,0,0,0,0,0,0,0,0,0,0
0,0,44,-123,-2242,595,-32,-2,204,0,0,0,0,0,0,0,0,0,0,0
0,0,52,-123,-2234,595,-32,-2,220,0,0,0,0,0,0,0,0,0,0,0
0,0,47,-121,-2230,596,-33,-1,222,0,0,0,0,0,0,0,0,0,0,0
0,0,48,-125,-2233,595,-33,-1,215,0,0,0,0,0,0,0,0,0,0,0
0,0,51,-122,-2229,595,-31,-1,227,0,0,0,0,0,0,0,0,0,0,0
0,0,58,-116,-2235,597,-32,-3,233,0,0,0,0,0,0,0,0,0,0,0
0,0,55,-118,-2232,595,-33,-3,228,0,0,0,0,0,0,0,0,0,0,0
0,0,47,-121,-2235,596,-34,-3,214,0,0,0,0,0,0,0,0,0,0,0
0,0,49,-122,-2241,595,-31,-3,211,0,0,0,0,0,0,0,0,0,0,0
0,0,52,-125,-2243,594,-32,-2,208,0,0,0,0,0,0,0,0,0,0,0
0,0,51,-120,-2239,595,-32,-2,217,0,0,0,0,0,0,0,0,0,0,0
0,0,46,-118,-2240,594,-32,-1,213,0,0,0,0,0,0,0,0,0,0,0
0,0,46,-124,-2231,596,-32,-2,217,0,0,0,0,0,0,0,0,0,0,0
0,0,46,-129,-2239,597,-31,-1,207,0,0,0,0,0,0,0,0,0,0,0
0,0,42,-124,-2233,595,-32,-3,209,0,0,0,0,0,0,0,0,0,0,0
0,0,52,-121,-2234,596,-33,-2,222,0,0,0,0,0,0,0,0,0,0,0
0,0,51,-121,-2233,597,-32,0,227,0,0,0,0,0,0,0,0,0,0,0
0,0,51,-121,-2230,597,-32,-1,228,0,0,0,0,0,0,0,0,0,0,0
0,0,44,-125,-2236,596,-30,-3,210,0,0,0,0,0,0,0,0,0,0,0
0,0,44,-123,-2225,598,-32,-3,223,0,0,0,0,0,0,0,0,0,0,0
0,0,52,-122,-2240,597,-33,-3,215,0,0,0,0,0,0,0,0,0,0,0
0,0,56,-125,-2234,595,-33,0,224,0,0,0,0,0,0,0,0,0,0,0
0,0,56,-125,-2234,596,-32,-2,223,0,0,0,0,0,0,0,0,0,0,0
0,0,48,-126,-2227,597,-33,-3,220,0,0,0,0,0,0,0,0,0,0,0
0,0,46,-122,-2227,597,-32,-2,224,0,0,0,0,0,0,0,0,0,0,0
0,0,51,-128,-2242,596,-31,-2,208,0,0,0,0,0,0,0,0,0,0,0
0,0,50,-120,-2240,595,-32,-2,215,0,0,0,0,0,0,0,0,0,0,0
0,0,53,-120,-2237,596,-31,-3,222,0,0,0,0,0,0,0,0,0,0,0
0,0,49,-130,-2233,595,-31,-1,213,0,0,0,0,0,0,0,0,0,0,0
0,0,49,-121,-2226,595,-32,-1,228,0,0,0,0,0,0,0,0,0,0,0
0,0,51,-121,-2241,595,-32,-2,214,0,0,0,0,0,0,0,0,0,0,0
0,0,46,-119,-2229,595,-32,-2,223,0,0,0,0,0,0,0,0,0,0,0
0,0,49,-121,-2238,597,-32,-2,217,0,0,0,0,0,0,0,0,0,0,0
0,0,46,-129,-2232,598,-33,-2,212,0,0,0,0,0,0,0,0,0,0,0
0,0,50,-130,-2242,596,-32,-3,203,0,0,0,0,0,0,0,0,0,0,0
0,0,41,-133,-2236,596,-32,-2,198,0,0,0,0,0,0,0,0,0,0,0
0,0,49,-130,-2235,597,-33,-3,209,0,0,0,0,0,0,0,0,0,0,0
0,0,50,-116,-2234,597,-32,-2,227,0,0,0,0,0,0,0,0,0,0,0
0,0,53,-121,-2235,595,-31,-2,223,0,0,0,0,0,0,0,0,0,0,0
0,0,48,-120,-2232,595,-33,-2,220,0,0,0,0,0,0,0,0,0,0,0
0,0,42,-126,-2227,597,-31,0,220,0,0,0,0,0,0,0,0,0,0,0
0,0,44,-128,-2239,596,-33,-2,202,0,0,0,0,0,0,0,0,0,0,0
0,0,51,-133,-2231,597,-32,-3,213,0,0,0,0,0,0,0,0,0,0,0
0,0,47,-124,-2235,595,-32,-1,214,0,0,0,0,0,0,0,0,0,0,0
0,0,50,-127,-2228,596,-30,0,226,0,0,0,0,0,0,0,0,0,0,0
0,0,46,-128,-2232,596,-32,-1,213,0,0,0,0,0,0,0,0,0,0,0
0,0,46,-130,-2234,597,-32,-2,209,0,0,0,0,0,0,0,0,0,0,0
0,0,49,-127,-2239,597,-33,-2,209,0,0,0,0,0,0,0,0,0,0,0
0,0,49,-122,-2236,596,-31,-3,217,0,0,0,0,0,0,0,0,0,0,0
0,0,49,-126,-2233,594,-33,-3,212,0,0,0,0,0,0,0,0,0,0,0
0,0,51,-128,-2227,596,-32,-2,222,0,0,0,0,0,0,0,0,0,0,0
0,0,46,-124,-2241,597,-32,-1,209,0,0,0,0,0,0,0,0,0,0,0
0,0,52,-117,-2251,596,-32,-2,210,0,0,0,0,0,0,0,0,0,0,0
0,0,50,-125,-2236,596,-33,-1,215,0,0,0,0,0,0,0,0,0,0,0
0,0,42,-122,-2228,596,-32,-2,218,0,0,0,0,0,0,0,0,0,0,0
0,0,50,-121,-2221,596,-32,-2,234,0,0,0,0,0,0,0,0,0,0,0
0,0,48,-130,-2232,595,-32,-2,211,0,0,0,0,0,0,0,0,0,0,0
0,0,44,-128,-2232,596,-32,-3,209,0,0,0,0,0,0,0,0,0,0,0
0,0,41,-124,-2231,595,-32,-1,212,0,0,0,0,0,0,0,0,0,0,0
0,0,57,-127,-2228,595,-32,-3,226,0,0,0,0,0,0,0,0,0,0,0
0,0,51,-117,-2228,595,-33,-3,229,0,0,0,0,0,0,0,0,0,0,0
0,0,46,-131,-2237,595,-32,-1,204,0,0,0,0,0,0,0,0,0,0,0
0,0,56,-121,-2241,596,-32,-1,221,0,0,0,0,0,0,0,0,0,0,0
0,0,49,-119,-2242,595,-32,-1,214,0,0,0,0,0,0,0,0,0,0,0
0,0,43,-115,-2228,595,-33,-1,225,0,0,0,0,0,0,0,0,0,0,0
0,0,51,-122,-2233,595,-32,-2,221,0,0,0,0,0,0,0,0,0,0,0
0,0,45,-125,-2236,595,-32,-2,209,0,0,0,0,0,0,0,0,0,0,0
0,0,52,-125,-2239,596,-31,-2,215,0,0,0,0,0,0,0,0,0,0,0
0,0,51,-128,-2234,594,-31,-3,213,0,0,0,0,0,0,0,0,0,0,0
0,0,52,-120,-2232,597,-31,-2,228,0,0,0,0,0,0,0,0,0,0,0
0,0,43,-120,-2226,596,-32,-2,223,0,0,0,0,0,0,0,0,0,0,0
0,0,55,-123,-2235,596,-32,-3,222,0,0,0,0,0,0,0,0,0,0,0
0,0,54,-125,-2243,595,-32,-2,211,0,0,0,0,0,0,0,0,0,0,0
0,0,46,-125,-2225,595,-31,-2,222,0,0,0,0,0,0,0,0,0,0,0
0,0,48,-116,-2239,596,-32,-3,218,0,0,0,0,0,0,0,0,0,0,0
0,0,59,-118,-2229,598,-32,-1,241,0,0,0,0,0,0,0,0,0,0,0
0,0,52,-125,-2245,596,-31,-3,208,0,0,0,0,0,0,0,0,0,0,0
0,0,53,-120,-2229,596,-30,-3,231,0,0,0,0,0,0,0,0,0,0,0
0,0,46,-128,-2242,594,-31,-3,200,0,0,0,0,0,0,0,0,0,0,0
0,0,47,-129,-2238,595,-32,-2,205,0,0,0,0,0,0,0,0,0,0,0
0,0,46,-128,-2243,595,-33,-2,199,0,0,0,0,0,0,0,0,0,0,0
0,0,50,-124,-2233,596,-33,-2,218,0,0,0,0,0,0,0,0,0,0,0
0,0,51,-126,-2229,596,-32,-3,221,0,0,0,0,0,0,0,0,0,0,0
0,0,46,-119,-2231,595,-31,-2,222,0,0,0,0,0,0,0,0,0,0,0
0,0,53,-115,-2239,596,-31,-1,227,0,0,0,0,0,0,0,0,0,0,0
0,0,43,-124,-2228,594,-34,1,217,0,0,0,0,0,0,0,0,0,0,0
0,0,48,-130,-2237,596,-32,-3,206,0,0,0,0,0,0,0,0,0,0,0
0,0,44,-124,-2232,595,-33,-2,212,0,0,0,0,0,0,0,0,0,0,0
0,0,47,-121,-2238,596,-31,-3,214,0,0,0,0,0,0,0,0,0,0,0
0,0,48,-120,-2238,596,-31,-2,217,0,0,0,0,0,0,0,0,0,0,0
0,0,50,-124,-2243,597,-33,-3,208,0,0,0,0,0,0,0,0,0,0,0
0,0,56,-124,-2242,597,-32,-2,217,0,0,0,0,0,0,0,0,0,0,0
0,0,53,-124,-2237,596,-32,-2,218,0,0,0,0,0,0,0,0,0,0,0
0,0,50,-123,-2243,597,-32,-1,212,0,0,0,0,0,0,0,0,0,0,0
0,0,56,-117,-2240,595,-33,-1,224,0,0,0,0,0,0,0,0,0,0,0
0,0,49,-119,-2242,595,-33,-2,212,0,0,0,0,0,0,0,0,0,0,0
0,0,42,-127,-2227,596,-32,-1,215,0,0,0,0,0,0,0,0,0,0,0
0,0,48,-133,-2230,595,-33,0,212,0,0,0,0,0,0,0,0,0,0,0
0,0,46,-120,-2231,597,-32,-3,221,0,0,0,0,0,0,0,0,0,0,0
0,0,49,-125,-2239,595,-32,-2,210,0,0,0,0,0,0,0,0,0,0,0
0,0,49,-122,-2229,594,-32,0,225,0,0,0,0,0,0,0,0,0,0,0
0,0,47,-131,-2234,596,-32,-1,209,0,0,0,0,0,0,0,0,0,0,0
0,0,53,-130,-2239,595,-32,-2,209,0,0,0,0,0,0,0,0,0,0,0
0,0,48,-129,-2234,594,-32,-1,210,0,0,0,0,0,0,0,0,0,0,0
0,0,51,-126,-2228,595,-31,-1,224,0,0,0,0,0,0,0,0,0,0,0
0,0,44,-131,-2243,595,-32,-3,194,0,0,0,0,0,0,0,0,0,0,0
0,0,44,-121,-2237,596,-32,-3,211,0,0,0,0,0,0,0,0,0,0,0
0,0,44,-127,-2236,596,-31,-2,208,0,0,0,0,0,0,0,0,0,0,0
0,0,50,-125,-2235,595,-31,-3,215,0,0,0,0,0,0,0,0,0,0,0
0,0,52,-130,-2235,596,-30,-2,215,0,0,0,0,0,0,0,0,0,0,0
0,0,44,-126,-2240,596,-33,-2,203,0,0,0,0,0,0,0,0,0,0,0
0,0,51,-127,-2241,595,-32,-1,209,0,0,0,0,0,0,0,0,0,0,0
0,0,51,-121,-2234,596,-33,-2,221,0,0,0,0,0,0,0,0,0,0,0
0,0,52,-119,-2226,594,-32,0,234,0,0,0,0,0,0,0,0,0,0,0
0,0,49,-122,-2243,596,-32,-1,211,0,0,0,0,0,0,0,0,0,0,0
0,0,45,-120,-2242,596,-32,-3,208,0,0,0,0,0,0,0,0,0,0,0
0,0,51,-132,-2231,595,-32,-4,211,0,0,0,0,0,0,0,0,0,0,0
0,0,47,-126,-2230,594,-32,-2,215,0,0,0,0,0,0,0,0,0,0,0
0,0,50,-120,-2234,595,-31,-3,221,0,0,0,0,0,0,0,0,0,0,0
0,0,50,-123,-2242,595,-31,-3,210,0,0,0,0,0,0,0,0,0,0,0
0,0,46,-127,-2229,596,-31,0,220,0,0,0,0,0,0,0,0,0,0,0
0,0,48,-118,-2235,595,-32,-3,219,0,0,0,0,0,0,0,0,0,0,0
0,0,44,-125,-2240,595,-32,-1,205,0,0,0,0,0,0,0,0,0,0,0
0,0,54,-127,-2233,596,-32,-2,220,0,0,0,0,0,0,0,0,0,0,0
0,0,48,-120,-2237,596,-33,-2,216,0,0,0,0,0,0,0,0,0,0,0
0,0,47,-122,-2234,597,-31,-3,218,0,0,0,0,0,0,0,0,0,0,0
0,0,47,-117,-2246,595,-33,-2,208,0,0,0,0,0,0,0,0,0,0,0
0,0,61,-130,-2244,593,-31,-2,211,0,0,0,0,0,0,0,0,0,0,0
0,0,52,-117,-2247,596,-33,-4,211,0,0,0,0,0,0,0,0,0,0,0
0,0,56,-120,-2233,594,-32,-2,227,0,0,0,0,0,0,0,0,0,0,0
0,0,52,-128,-2242,596,-33,-1,208,0,0,0,0,0,0,0,0,0,0,0
0,0,44,-126,-2228,595,-32,-1,216,0,0,0,0,0,0,0,0,0,0,0
0,0,50,-125,-2235,595,-31,-3,215,0,0,0,0,0,0,0,0,0,0,0
0,0,50,-120,-2233,596,-31,-2,224,0,0,0,0,0,0,0,0,0,0,0
0,0,45,-125,-2235,595,-33,-1,210,0,0,0,0,0,0,0,0,0,0,0
0,0,40,-126,-2229,595,-31,-1,212,0,0,0,0,0,0,0,0,0,0,0
0,0,44,-126,-2233,596,-31,-2,212,0,0,0,0,0,0,0,0,0,0,0
0,0,58,-119,-2233,595,-32,-3,230,0,0,0,0,0,0,0,0,0,0,0
0,0,47,-123,-2233,596,-33,-3,215,0,0,0,0,0,0,0,0,0,0,0
0,0,51,-122,-2237,596,-32,-2,218,0,0,0,0,0,0,0,0,0,0,0
0,0,49,-123,-2243,596,-32,-2,209,0,0,0,0,0,0,0,0,0,0,0
0,0,56,-127,-2224,595,-32,-1,231,0,0,0,0,0,0,0,0,0,0,0
0,0,46,-122,-2233,597,-33,-1,218,0,0,0,0,0,0,0,0,0,0,0
0,0,50,-124,-2231,596,-33,-2,220,0,0,0,0,0,0,0,0,0,0,0
0,0,43,-130,-2248,597,-33,-1,192,0,0,0,0,0,0,0,0,0,0,0
0,0,53,-128,-2232,595,-32,-2,218,0,0,0,0,0,0,0,0,0,0,0
0,0,47,-126,-2237,595,-32,-2,209,0,0,0,0,0,0,0,0,0,0,0
0,0,50,-116,-2244,595,-30,-1,218,0,0,0,0,0,0,0,0,0,0,0
0,0,50,-127,-2231,595,-32,-3,216,0,0,0,0,0,0,0,0,0,0,0
0,0,49,-125,-2229,595,-31,-2,221,0,0,0,0,0,0,0,0,0,0,0
0,0,45,-121,-2225,596,-31,-1,227,0,0,0,0,0,0,0,0,0,0,0
0,0,55,-125,-2239,596,-32,-2,217,0,0,0,0,0,0,0,0,0,0,0
0,0,52,-126,-2239,597,-32,-2,214,0,0,0,0,0,0,0,0,0,0,0
0,0,46,-121,-2232,596,-33,-1,219,0,0,0,0,0,0,0,0,0,0,0
0,0,49,-115,-2238,595,-32,0,224,0,0,0,0,0,0,0,0,0,0,0
0,0,49,-121,-2237,595,-32,-1,217,0,0,0,0,0,0,0,0,0,0,0
0,0,51,-118,-2232,596,-32,-1,228,0,0,0,0,0,0,0,0,0,0,0
0,0,51,-124,-2226,597,-32,-1,229,0,0,0,0,0,0,0,0,0,0,0
0,0,47,-114,-2235,595,-33,-1,223,0,0,0,0,0,0,0,0,0,0,0
0,0,49,-120,-2225,596,-32,-1,231,0,0,0,0,0,0,0,0,0,0,0
0,0,51,-125,-2240,594,-33,-1,210,0,0,0,0,0,0,0,0,0,0,0
0,0,51,-122,-2239,594,-34,-3,211,0,0,0,0,0,0,0,0,0,0,0
0,0,49,-114,-2229,595,-32,-2,231,0,0,0,0,0,0,0,0,0,0,0
0,0,46,-127,-2237,597,-31,-2,210,0,0,0,0,0,0,0,0,0,0,0
0,0,50,-125,-2241,597,-32,-3,210,0,0,0,0,0,0,0,0,0,0,0
0,0,45,-123,-2235,595,-32,-3,211,0,0,0,0,0,0,0,0,0,0,0
0,0,54,-123,-2242,597,-32,-2,216,0,0,0,0,0,0,0,0,0,0,0
0,0,52,-119,-2236,596,-32,-1,224,0,0,0,0,0,0,0,0,0,0,0
0,0,47,-123,-2229,595,-31,-2,221,0,0,0,0,0,0,0,0,0,0,0
0,0,46,-125,-2228,595,-32,-2,218,0,0,0,0,0,0,0,0,0,0,0
0,0,55,-120,-2229,595,-33,-1,231,0,0,0,0,0,0,0,0,0,0,0
0,0,47,-118,-2237,596,-32,-3,217,0,0,0,0,0,0,0,0,0,0,0
0,0,52,-121,-2222,595,-32,-3,233,0,0,0,0,0,0,0,0,0,0,0
0,0,54,-116,-2229,596,-30,-3,236,0,0,0,0,0,0,0,0,0,0,0
0,0,47,-118,-2237,594,-32,-3,215,0,0,0,0,0,0,0,0,0,0,0
0,0,42,-121,-2237,595,-32,-2,209,0,0,0,0,0,0,0,0,0,0,0
0,0,52,-130,-2232,595,-31,-2,216,0,0,0,0,0,0,0,0,0,0,0
0,0,48,-120,-2236,595,-32,-3,216,0,0,0,0,0,0,0,0,0,0,0
0,0,47,-124,-2235,596,-31,-2,215,0,0,0,0,0,0,0,0,0,0,0
0,0,45,-127,-2236,596,-32,-2,208,0,0,0,0,0,0,0,0,0,0,0
0,0,49,-126,-2233,595,-34,-2,213,0,0,0,0,0,0,0,0,0,0,0
0,0,46,-123,-2234,595,-32,-2,214,0,0,0,0,0,0,0,0,0,0,0
0,0,44,-120,-2246,597,-32,-1,206,0,0,0,0,0,0,0,0,0,0,0
0,0,49,-130,-2244,596,-34,-1,200,0,0,0,0,0,0,0,0,0,0,0
0,0,53,-128,-2237,596,-32,-1,215,0,0,0,0,0,0,0,0,0,0,0
0,0,56,-125,-2236,596,-32,-3,220,0,0,0,0,0,0,0,0,0,0,0
0,0,52,-124,-2235,596,-32,-1,220,0,0,0,0,0,0,0,0,0,0,0
0,0,51,-118,-2244,598,-32,-3,216,0,0,0,0,0,0,0,0,0,0,0
0,0,49,-116,-2227,595,-31,-3,231,0,0,0,0,0,0,0,0,0,0,0
0,0,51,-123,-2225,597,-32,-2,230,0,0,0,0,0,0,0,0,0,0,0
0,0,55,-132,-2232,594,-32,-2,215,0,0,0,0,0,0,0,0,0,0,0
0,0,53,-115,-2236,595,-32,-2,227,0,0,0,0,0,0,0,0,0,0,0
0,0,51,-129,-2231,596,-32,-1,218,0,0,0,0,0,0,0,0,0,0,0
0,0,50,-124,-2229,595,-32,-2,222,0,0,0,0,0,0,0,0,0,0,0
0,0,54,-125,-2235,596,-32,-2,220,0,0,0,0,0,0,0,0,0,0,0
0,0,49,-128,-2224,596,-32,-3,222,0,0,0,0,0,0,0,0,0,0,0
0,0,52,-123,-2227,596,-32,-1,229,0,0,0,0,0,0,0,0,0,0,0
0,0,50,-125,-2222,596,-31,-1,231,0,0,0,0,0,0,0,0,0,0,0
0,0,45,-125,-2242,595,-33,-2,202,0,0,0,0,0,0,0,0,0,0,0
0,0,45,-121,-2239,595,-32,-3,209,0,0,0,0,0,0,0,0,0,0,0
0,0,48,-119,-2231,596,-32,-1,225,0,0,0,0,0,0,0,0,0,0,0
0,0,49,-117,-2234,596,-32,-2,224,0,0,0,0,0,0,0,0,0,0,0
0,0,44,-123,-2225,596,-32,-2,222,0,0,0,0,0,0,0,0,0,0,0
0,0,44,-126,-2229,595,-33,-2,213,0,0,0,0,0,0,0,0,0,0,0
0,0,52,-124,-2234,595,-33,-1,219,0,0,0,0,0,0,0,0,0,0,0
0,0,51,-121,-2242,595,-33,-2,212,0,0,0,0,0,0,0,0,0,0,0
0,0,49,-121,-2245,595,-32,-1,209,0,0,0,0,0,0,0,0,0,0,0
0,0,52,-125,-2229,595,-31,-1,225,0,0,0,0,0,0,0,0,0,0,0
0,0,51,-124,-2232,596,-33,-3,219,0,0,0,0,0,0,0,0,0,0,0
0,0,49,-130,-2230,596,-32,-3,214,0,0,0,0,0,0,0,0,0,0,0
0,0,50,-128,-2229,595,-32,-2,218,0,0,0,0,0,0,0,0,0,0,0
0,0,54,-123,-2223,596,-33,-2,233,0,0,0,0,0,0,0,0,0,0,0
0,0,49,-123,-2240,596,-32,0,215,0,0,0,0,0,0,0,0,0,0,0
0,0,50,-126,-2240,596,-31,-2,211,0,0,0,0,0,0,0,0,0,0,0
0,0,54,-128,-2237,596,-31,-2,216,0,0,0,0,0,0,0,0,0,0,0
0,0,54,-121,-2241,595,-30,-1,220,0,0,0,0,0,0,0,0,0,0,0
0,0,53,-121,-2235,595,-31,-1,224,0,0,0,0,0,0,0,0,0,0,0
0,0,44,-120,-2233,595,-30,-1,219,0,0,0,0,0,0,0,0,0,0,0
0,0,53,-126,-2242,596,-32,0,214,0,0,0,0,0,0,0,0,0,0,0
0,0,51,-121,-2235,597,-32,-3,221,0,0,0,0,0,0,0,0,0,0,0
0,0,51,-128,-2236,595,-31,-1,214,0,0,0,0,0,0,0,0,0,0,0
0,0,45,-127,-2243,597,-32,-2,202,0,0,0,0,0,0,0,0,0,0,0
0,0,53,-119,-2239,596,-32,-2,221,0,0,0,0,0,0,0,0,0,0,0
0,0,54,-115,-2232,596,-32,-2,233,0,0,0,0,0,0,0,0,0,0,0
0,0,43,-122,-2232,598,-32,-3,216,0,0,0,0,0,0,0,0,0,0,0
0,0,47,-128,-2235,595,-32,-3,208,0,0,0,0,0,0,0,0,0,0,0
0,0,51,-127,-2236,596,-31,-1,216,0,0,0,0,0,0,0,0,0,0,0
0,0,46,-127,-2239,596,-32,-2,206,0,0,0,0,0,0,0,0,0,0,0
0,0,48,-124,-2236,596,-33,-1,214,0,0,0,0,0,0,0,0,0,0,0
0,0,46,-128,-2243,596,-32,-1,202,0,0,0,0,0,0,0,0,0,0,0
0,0,53,-123,-2231,595,-33,-1,224,0,0,0,0,0,0,0,0,0,0,0
0,0,49,-125,-2232,597,-32,-1,220,0,0,0,0,0,0,0,0,0,0,0
0,0,54,-123,-2230,597,-33,-2,227,0,0,0,0,0,0,0,0,0,0,0
0,0,48,-122,-2234,596,-32,-3,217,0,0,0,0,0,0,0,0,0,0,0
0,0,46,-121,-2234,595,-31,-4,215,0,0,0,0,0,0,0,0,0,0,0
0,0,53,-115,-2227,595,-33,-4,233,0,0,0,0,0,0,0,0,0,0,0
0,0,47,-130,-2221,596,-32,-3,221,0,0,0,0,0,0,0,0,0,0,0
0,0,48,-124,-2231,596,-33,-3,217,0,0,0,0,0,0,0,0,0,0,0
0,0,48,-133,-2239,596,-33,-2,201,0,0,0,0,0,0,0,0,0,0,0
0,0,51,-129,-2226,597,-31,-2,224,0,0,0,0,0,0,0,0,0,0,0
0,0,51,-124,-2248,594,-32,0,206,0,0,0,0,0,0,0,0,0,0,0
0,0,47,-127,-2247,594,-33,-2,196,0,0,0,0,0,0,0,0,0,0,0
0,0,45,-126,-2234,595,-32,-3,209,0,0,0,0,0,0,0,0,0,0,0
0,0,51,-123,-2240,596,-31,-3,214,0,0,0,0,0,0,0,0,0,0,0
0,0,56,-118,-2236,596,-32,-2,228,0,0,0,0,0,0,0,0,0,0,0
0,0,44,-122,-2233,596,-32,-4,213,0,0,0,0,0,0,0,0,0,0,0
0,0,51,-122,-2233,596,-33,-3,220,0,0,0,0,0,0,0,0,0,0,0
0,0,45,-125,-2233,596,-32,-2,213,0,0,0,0,0,0,0,0,0,0,0
0,0,47,-133,-2234,595,-31,-2,206,0,0,0,0,0,0,0,0,0,0,0
0,0,47,-126,-2236,596,-32,-3,210,0,0,0,0,0,0,0,0,0,0,0
0,0,51,-121,-2243,596,-30,-3,214,0,0,0,0,0,0,0,0,0,0,0
0,0,42,-127,-2233,596,-33,-3,206,0,0,0,0,0,0,0,0,0,0,0
0,0,50,-120,-2236,596,-31,-1,222,0,0,0,0,0,0,0,0,0,0,0
0,0,45,-126,-2228,596,-32,-3,216,0,0,0,0,0,0,0,0,0,0,0
0,0,50,-126,-2236,597,-32,-3,214,0,0,0,0,0,0,0,0,0,0,0
0,0,49,-123,-2237,596,-32,-2,215,0,0,0,0,0,0,0,0,0,0,0
0,0,46,-115,-2236,596,-33,-1,221,0,0,0,0,0,0,0,0,0,0,0
0,0,49,-123,-2233,596,-31,-1,221,0,0,0,0,0,0,0,0,0,0,0
0,0,49,-128,-2231,596,-34,-1,215,0,0,0,0,0,0,0,0,0,0,0
0,0,41,-123,-2226,596,-32,-2,218,0,0,0,0,0,0,0,0,0,0,0
0,0,48,-124,-2233,595,-33,-2,215,0,0,0,0,0,0,0,0,0,0,0
0,0,48,-125,-2227,595,-32,-2,221,0,0,0,0,0,0,0,0,0,0,0
0,0,46,-119,-2233,596,-33,-2,219,0,0,0,0,0,0,0,0,0,0,0
0,0,44,-123,-2233,595,-32,-2,213,0,0,0,0,0,0,0,0,0,0,0
0,0,45,-127,-2245,596,-32,-2,199,0,0,0,0,0,0,0,0,0,0,0
0,0,46,-130,-2244,595,-32,-1,198,0,0,0,0,0,0,0,0,0,0,0
0,0,56,-129,-2228,596,-32,-2,225,0,0,0,0,0,0,0,0,0,0,0
0,0,53,-123,-2228,595,-32,-3,226,0,0,0,0,0,0,0,0,0,0,0
0,0,49,-126,-2238,595,-31,-1,212,0,0,0,0,0,0,0,0,0,0,0
0,0,49,-120,-2233,596,-33,-2,221,0,0,0,0,0,0,0,0,0,0,0
0,0,52,-133,-2238,596,-33,-2,206,0,0,0,0,0,0,0,0,0,0,0
0,0,54,-122,-2235,596,-32,-2,223,0,0,0,0,0,0,0,0,0,0,0
0,0,47,-117,-2230,595,-32,-1,226,0,0,0,0,0,0,0,0,0,0,0
0,0,50,-118,-2234,596,-32,-1,225,0,0,0,0,0,0,0,0,0,0,0
0,0,49,-121,-2234,594,-33,-2,217,0,0,0,0,0,0,0,0,0,0,0
0,0,46,-122,-2236,596,-33,-3,212,0,0,0,0,0,0,0,0,0,0,0
0,0,45,-129,-2239,595,-32,-2,202,0,0,0,0,0,0,0,0,0,0,0
0,0,40,-129,-2224,595,-33,-2,211,0,0,0,0,0,0,0,0,0,0,0
0,0,44,-127,-2236,595,-32,-4,204,0,0,0,0,0,0,0,0,0,0,0
0,0,42,-128,-2239,595,-33,-2,199,0,0,0,0,0,0,0,0,0,0,0
0,0,55,-129,-2234,596,-32,-3,217,0,0,0,0,0,0,0,0,0,0,0
0,0,48,-119,-2238,595,-33,-3,214,0,0,0,0,0,0,0,0,0,0,0
0,0,52,-122,-2229,594,-33,-3,223,0,0,0,0,0,0,0,0,0,0,0
0,0,58,-126,-2229,594,-32,-3,226,0,0,0,0,0,0,0,0,0,0,0
0,0,51,-127,-2230,597,-32,-2,221,0,0,0,0,0,0,0,0,0,0,0
0,0,51,-124,-2238,596,-33,-3,213,0,0,0,0,0,0,0,0,0,0,0
0,0,46,-121,-2239,594,-32,-2,210,0,0,0,0,0,0,0,0,0,0,0
0,0,49,-122,-2235,595,-32,-1,218,0,0,0,0,0,0,0,0,0,0,0
0,0,47,-120,-2235,595,-32,-2,217,0,0,0,0,0,0,0,0,0,0,0
0,0,46,-123,-2243,595,-31,-2,206,0,0,0,0,0,0,0,0,0,0,0
0,0,48,-129,-2238,597,-34,-2,206,0,0,0,0,0,0,0,0,0,0,0
0,0,45,-121,-2230,596,-33,-2,219,0,0,0,0,0,0,0,0,0,0,0
0,0,52,-117,-2221,596,-32,-2,240,0,0,0,0,0,0,0,0,0,0,0
0,0,52,-124,-2232,595,-32,-3,220,0,0,0,0,0,0,0,0,0,0,0
0,0,57,-119,-2234,594,-31,-2,229,0,0,0,0,0,0,0,0,0,0,0
0,0,47,-118,-2238,596,-31,-2,218,0,0,0,0,0,0,0,0,0,0,0
0,0,52,-125,-2237,596,-32,-3,215,0,0,0,0,0,0,0,0,0,0,0
0,0,56,-123,-2237,596,-31,-1,224,0,0,0,0,0,0,0,0,0,0,0
0,0,54,-122,-2235,595,-32,-2,222,0,0,0,0,0,0,0,0,0,0,0
0,0,47,-124,-2227,596,-31,-2,223,0,0,0,0,0,0,0,0,0,0,0
0,0,52,-115,-2224,595,-32,-2,238,0,0,0,0,0,0,0,0,0,0,0
0,0,49,-120,-2233,595,-31,-2,222,0,0,0,0,0,0,0,0,0,0,0
0,0,53,-124,-2234,596,-30,-2,223,0,0,0,0,0,0,0,0,0,0,0
0,0,52,-122,-2234,595,-32,-2,221,0,0,0,0,0,0,0,0,0,0,0
0,0,45,-112,-2230,595,-32,-2,228,0,0,0,0,0,0,0,0,0,0,0
0,0,52,-122,-2231,595,-33,-3,222,0,0,0,0,0,0,0,0,0,0,0
0,0,47,-126,-2237,595,-32,-2,209,0,0,0,0,0,0,0,0,0,0,0
0,0,50,-120,-2229,595,-31,-1,228,0,0,0,0,0,0,0,0,0,0,0
0,0,55,-114,-2235,595,-33,-2,230,0,0,0,0,0,0,0,0,0,0,0
0,0,55,-121,-2231,596,-31,-3,229,0,0,0,0,0,0,0,0,0,0,0
0,0,42,-130,-2238,595,-33,-2,198,0,0,0,0,0,0,0,0,0,0,0
0,0,48,-127,-2227,596,-33,-2,219,0,0,0,0,0,0,0,0,0,0,0
0,0,57,-125,-2231,596,-32,-2,227,0,0,0,0,0,0,0,0,0,0,0
0,0,47,-118,-2233,595,-31,-2,222,0,0,0,0,0,0,0,0,0,0,0
0,0,54,-124,-2238,595,-31,-2,218,0,0,0,0,0,0,0,0,0,0,0
0,0,44,-122,-2234,595,-32,-3,212,0,0,0,0,0,0,0,0,0,0,0
0,0,45,-120,-2236,597,-31,-3,216,0,0,0,0,0,0,0,0,0,0,0
0,0,45,-121,-2242,595,-32,-2,207,0,0,0,0,0,0,0,0,0,0,0
0,0,54,-122,-2243,594,-32,-3,212,0,0,0,0,0,0,0,0,0,0,0
0,0,45,-118,-2239,596,-32,-2,214,0,0,0,0,0,0,0,0,0,0,0
0,0,47,-118,-2235,596,-32,-3,219,0,0,0,0,0,0,0,0,0,0,0
0,0,49,-119,-2236,595,-32,-2,219,0,0,0,0,0,0,0,0,0,0,0
0,0,52,-123,-2232,596,-31,-4,222,0,0,0,0,0,0,0,0,0,0,0
0,0,53,-120,-2235,597,-33,-2,224,0,0,0,0,0,0,0,0,0,0,0
0,0,48,-123,-2226,596,-32,-4,223,0,0,0,0,0,0,0,0,0,0,0
0,0,49,-119,-2231,594,-31,-2,224,0,0,0,0,0,0,0,0,0,0,0
0,0,52,-126,-2233,594,-32,-1,218,0,0,0,0,0,0,0,0,0,0,0
0,0,62,-121,-2232,595,-31,-3,234,0,0,0,0,0,0,0,0,0,0,0
0,0,56,-117,-2233,594,-32,-2,230,0,0,0,0,0,0,0,0,0,0,0
0,0,53,-125,-2240,595,-32,-3,212,0,0,0,0,0,0,0,0,0,0,0
0,0,43,-124,-2234,595,-32,-1,211,0,0,0,0,0,0,0,0,0,0,0
0,0,48,-127,-2231,596,-33,0,218,0,0,0,0,0,0,0,0,0,0,0
0,0,49,-123,-2232,596,-32,-2,220,0,0,0,0,0,0,0,0,0,0,0
0,0,48,-119,-2238,596,-33,-3,215,0,0,0,0,0,0,0,0,0,0,0
0,0,38,-115,-2239,596,-33,-2,209,0,0,0,0,0,0,0,0,0,0,0
0,0,46,-129,-2242,597,-31,-3,202,0,0,0,0,0,0,0,0,0,0,0
0,0,52,-124,-2238,596,-31,-3,216,0,0,0,0,0,0,0,0,0,0,0
0,0,47,-130,-2229,596,-33,-2,213,0,0,0,0,0,0,0,0,0,0,0
0,0,47,-120,-2233,595,-33,-3,217,0,0,0,0,0,0,0,0,0,0,0
0,0,54,-121,-2230,596,-34,-2,227,0,0,0,0,0,0,0,0,0,0,0
0,0,50,-122,-2231,595,-31,-3,222,0,0,0,0,0,0,0,0,0,0,0
0,0,51,-125,-2240,596,-30,-2,214,0,0,0,0,0,0,0,0,0,0,0
0,0,51,-121,-2234,595,-32,-3,220,0,0,0,0,0,0,0,0,0,0,0
0,0,52,-131,-2236,596,-32,-2,211,0,0,0,0,0,0,0,0,0,0,0
0,0,47,-129,-2242,596,-31,-1,204,0,0,0,0,0,0,0,0,0,0,0
0,0,53,-124,-2234,596,-32,-2,221,0,0,0,0,0,0,0,0,0,0,0
0,0,40,-123,-2236,594,-31,-2,206,0,0,0,0,0,0,0,0,0,0,0
0,0,47,-122,-2245,596,-33,-2,205,0,0,0,0,0,0,0,0,0,0,0
0,0,53,-119,-2226,596,-32,-2,234,0,0,0,0,0,0,0,0,0,0,0
0,0,51,-124,-2244,597,-32,-3,209,0,0,0,0,0,0,0,0,0,0,0
0,0,56,-125,-2238,595,-33,-3,216,0,0,0,0,0,0,0,0,0,0,0
0,0,54,-124,-2239,595,-33,-5,212,0,0,0,0,0,0,0,0,0,0,0
0,0,41,-126,-2234,595,-33,-2,205,0,0,0,0,0,0,0,0,0,0,0
0,0,46,-121,-2251,596,-32,-3,199,0,0,0,0,0,0,0,0,0,0,0
0,0,55,-126,-2244,596,-32,-2,211,0,0,0,0,0,0,0,0,0,0,0
0,0,48,-124,-2233,595,-32,-2,216,0,0,0,0,0,0,0,0,0,0,0
0,0,48,-131,-2238,596,-32,-2,205,0,0,0,0,0,0,0,0,0,0,0
0,0,50,-121,-2227,596,-34,-3,225,0,0,0,0,0,0,0,0,0,0,0
0,0,45,-120,-2233,596,-33,-1,218,0,0,0,0,0,0,0,0,0,0,0
0,0,46,-119,-2231,598,-32,-1,225,0,0,0,0,0,0,0,0,0,0,0
0,0,45,-127,-2242,596,-33,-2,201,0,0,0,0,0,0,0,0,0,0,0
0,0,43,-119,-2249,596,-33,-3,199,0,0,0,0,0,0,0,0,0,0,0
0,0,46,-121,-2229,595,-32,-2,221,0,0,0,0,0,0,0,0,0,0,0
0,0,55,-120,-2235,595,-32,-4,223,0,0,0,0,0,0,0,0,0,0,0
0,0,41,-125,-2236,596,-33,-2,205,0,0,0,0,0,0,0,0,0,0,0
0,0,44,-121,-2227,597,-31,-2,224,0,0,0,0,0,0,0,0,0,0,0
0,0,47,-123,-2226,596,-32,-1,225,0,0,0,0,0,0,0,0,0,0,0
0,0,46,-122,-2235,596,-32,-2,215,0,0,0,0,0,0,0,0,0,0,0
0,0,56,-128,-2225,595,-31,-2,229,0,0,0,0,0,0,0,0,0,0,0
0,0,44,-116,-2236,595,-33,-1,217,0,0,0,0,0,0,0,0,0,0,0
0,0,50,-117,-2236,595,-32,-2,222,0,0,0,0,0,0,0,0,0,0,0
0,0,44,-122,-2233,596,-32,-2,215,0,0,0,0,0,0,0,0,0,0,0
0,0,46,-122,-2237,596,-32,-2,213,0,0,0,0,0,0,0,0,0,0,0
0,0,54,-128,-2240,596,-31,-2,213,0,0,0,0,0,0,0,0,0,0,0
0,0,53,-121,-2239,595,-32,-3,217,0,0,0,0,0,0,0,0,0,0,0
0,0,49,-120,-2238,596,-33,-2,216,0,0,0,0,0,0,0,0,0,0,0
0,0,41,-129,-2224,597,-31,-2,216,0,0,0,0,0,0,0,0,0,0,0
0,0,47,-126,-2227,596,-32,-4,218,0,0,0,0,0,0,0,0,0,0,0
0,0,49,-120,-2233,596,-33,-2,221,0,0,0,0,0,0,0,0,0,0,0
0,0,56,-127,-2239,595,-33,-1,215,0,0,0,0,0,0,0,0,0,0,0
0,0,52,-123,-2223,596,-32,-1,233,0,0,0,0,0,0,0,0,0,0,0
0,0,50,-121,-2228,596,-32,-2,227,0,0,0,0,0,0,0,0,0,0,0
0,0,57,-125,-2234,595,-33,-2,222,0,0,0,0,0,0,0,0,0,0,0
0,0,48,-120,-2229,596,-33,-1,225,0,0,0,0,0,0,0,0,0,0,0
0,0,48,-131,-2240,595,-33,-2,201,0,0,0,0,0,0,0,0,0,0,0
0,0,56,-125,-2231,595,-32,-2,225,0,0,0,0,0,0,0,0,0,0,0
0,0,53,-120,-2227,595,-32,-3,230,0,0,0,0,0,0,0,0,0,0,0
0,0,55,-128,-2229,596,-32,-2,224,0,0,0,0,0,0,0,0,0,0,0
0,0,58,-128,-2240,597,-34,-2,215,0,0,0,0,0,0,0,0,0,0,0
0,0,52,-130,-2232,597,-33,-2,216,0,0,0,0,0,0,0,0,0,0,0
0,0,52,-120,-2238,595,-31,-2,220,0,0,0,0,0,0,0,0,0,0,0
0,0,52,-125,-2236,595,-32,-1,217,0,0,0,0,0,0,0,0,0,0,0
0,0,46,-124,-2234,596,-31,-1,216,0,0,0,0,0,0,0,0,0,0,0
0,0,52,-127,-2239,596,-31,-2,213,0,0,0,0,0,0,0,0,0,0,0
0,0,49,-122,-2235,596,-32,-3,217,0,0,0,0,0,0,0,0,0,0,0
0,0,55,-119,-2223,595,-32,-2,238,0,0,0,0,0,0,0,0,0,0,0
0,0,50,-118,-2230,596,-32,-1,229,0,0,0,0,0,0,0,0,0,0,0
0,0,49,-122,-2233,595,-33,-3,217,0,0,0,0,0,0,0,0,0,0,0
0,0,50,-124,-2232,597,-33,-2,220,0,0,0,0,0,0,0,0,0,0,0
0,0,52,-122,-2227,595,-32,-2,228,0,0,0,0,0,0,0,0,0,0,0
0,0,49,-114,-2230,595,-31,0,234,0,0,0,0,0,0,0,0,0,0,0
0,0,48,-120,-2235,596,-32,-2,219,0,0,0,0,0,0,0,0,0,0,0
0,0,47,-124,-2229,594,-32,-1,219,0,0,0,0,0,0,0,0,0,0,0
0,0,48,-125,-2228,594,-33,-2,218,0,0,0,0,0,0,0,0,0,0,0
0,0,49,-115,-2227,595,-31,-3,232,0,0,0,0,0,0,0,0,0,0,0
0,0,53,-119,-2232,595,-33,-2,226,0,0,0,0,0,0,0,0,0,0,0
0,0,45,-123,-2229,595,-31,-3,218,0,0,0,0,0,0,0,0,0,0,0
0,0,48,-125,-2230,597,-31,-2,221,0,0,0,0,0,0,0,0,0,0,0
0,0,52,-127,-2227,595,-31,-2,224,0,0,0,0,0,0,0,0,0,0,0
0,0,52,-117,-2245,596,-31,-2,217,0,0,0,0,0,0,0,0,0,0,0
0,0,52,-119,-2232,596,-32,-3,226,0,0,0,0,0,0,0,0,0,0,0
0,0,53,-124,-2231,596,-31,-2,225,0,0,0,0,0,0,0,0,0,0,0
0,0,47,-123,-2244,594,-32,-2,204,0,0,0,0,0,0,0,0,0,0,0
0,0,43,-122,-2236,594,-33,-3,207,0,0,0,0,0,0,0,0,0,0,0
0,0,49,-115,-2243,596,-33,-2,216,0,0,0,0,0,0,0,0,0,0,0
0,0,53,-124,-2244,595,-33,-3,208,0,0,0,0,0,0,0,0,0,0,0
0,0,49,-115,-2230,595,-32,-3,228,0,0,0,0,0,0,0,0,0,0,0
0,0,42,-119,-2230,595,-33,-2,217,0,0,0,0,0,0,0,0,0,0,0
0,0,47,-125,-2240,594,-33,-2,205,0,0,0,0,0,0,0,0,0,0,0
0,0,52,-125,-2240,596,-32,-1,214,0,0,0,0,0,0,0,0,0,0,0
0,0,51,-124,-2228,596,-32,-3,224,0,0,0,0,0,0,0,0,0,0,0
0,0,49,-124,-2233,596,-31,-4,217,0,0,0,0,0,0,0,0,0,0,0
0,0,53,-126,-2228,594,-32,-3,222,0,0,0,0,0,0,0,0,0,0,0
0,0,59,-122,-2246,596,-34,-3,214,0,0,0,0,0,0,0,0,0,0,0
0,0,53,-125,-2242,597,-32,-2,213,0,0,0,0,0,0,0,0,0,0,0
0,0,45,-129,-2229,595,-32,-1,213,0,0,0,0,0,0,0,0,0,0,0
0,0,51,-121,-2237,594,-32,-3,216,0,0,0,0,0,0,0,0,0,0,0
0,0,53,-124,-2238,596,-34,-2,215,0,0,0,0,0,0,0,0,0,0,0
0,0,48,-122,-2231,597,-33,-2,221,0,0,0,0,0,0,0,0,0,0,0
0,0,56,-128,-2226,597,-32,-2,229,0,0,0,0,0,0,0,0,0,0,0
0,0,50,-120,-2230,596,-33,-3,224,0,0,0,0,0,0,0,0,0,0,0
0,0,45,-122,-2232,597,-31,-1,220,0,0,0,0,0,0,0,0,0,0,0
0,0,46,-120,-2222,596,-32,-1,231,0,0,0,0,0,0,0,0,0,0,0
0,0,52,-122,-2228,595,-33,-2,226,0,0,0,0,0,0,0,0,0,0,0
0,0,50,-127,-2234,596,-32,-2,215,0,0,0,0,0,0,0,0,0,0,0
0,0,47,-121,-2231,595,-31,-3,220,0,0,0,0,0,0,0,0,0,0,0
0,0,42,-125,-2233,596,-32,-1,211,0,0,0,0,0,0,0,0,0,0,0
0,0,47,-129,-2230,595,-33,-1,213,0,0,0,0,0,0,0,0,0,0,0
0,0,47,-123,-2238,595,-33,-2,210,0,0,0,0,0,0,0,0,0,0,0
0,0,49,-124,-2230,595,-31,-3,220,0,0,0,0,0,0,0,0,0,0,0
0,0,48,-116,-2226,595,-31,-2,232,0,0,0,0,0,0,0,0,0,0,0
0,0,39,-123,-2228,596,-31,-3,214,0,0,0,0,0,0,0,0,0,0,0
0,0,47,-117,-2233,596,-32,0,226,0,0,0,0,0,0,0,0,0,0,0
0,0,54,-130,-2220,596,-32,-3,229,0,0,0,0,0,0,0,0,0,0,0
0,0,49,-133,-2233,596,-33,-3,207,0,0,0,0,0,0,0,0,0,0,0
0,0,49,-125,-2237,595,-32,-1,213,0,0,0,0,0,0,0,0,0,0,0
0,0,48,-122,-2234,597,-33,-2,218,0,0,0,0,0,0,0,0,0,0,0
0,0,56,-127,-2233,596,-32,-3,221,0,0,0,0,0,0,0,0,0,0,0
0,0,53,-128,-2226,595,-32,-2,224,0,0,0,0,0,0,0,0,0,0,0
0,0,51,-121,-2233,595,-32,-3,221,0,0,0,0,0,0,0,0,0,0,0
0,0,55,-119,-2232,594,-32,-2,228,0,0,0,0,0,0,0,0,0,0,0
0,0,51,-125,-2235,595,-33,-2,215,0,0,0,0,0,0,0,0,0,0,0
0,0,45,-126,-2232,595,-32,-3,211,0,0,0,0,0,0,0,0,0,0,0
0,0,48,-125,-2245,596,-31,-3,204,0,0,0,0,0,0,0,0,0,0,0
0,0,49,-125,-2242,595,-33,-1,207,0,0,0,0,0,0,0,0,0,0,0
0,0,48,-120,-2236,596,-31,-1,220,0,0,0,0,0,0,0,0,0,0,0
0,0,50,-119,-2237,596,-32,-2,220,0,0,0,0,0,0,0,0,0,0,0
0,0,46,-126,-2235,596,-32,-1,212,0,0,0,0,0,0,0,0,0,0,0
0,0,50,-120,-2234,595,-31,-2,222,0,0,0,0,0,0,0,0,0,0,0
0,0,52,-120,-2233,596,-33,-2,224,0,0,0,0,0,0,0,0,0,0,0
0,0,46,-121,-2244,595,-32,-1,207,0,0,0,0,0,0,0,0,0,0,0
0,0,43,-120,-2233,595,-32,-3,214,0,0,0,0,0,0,0,0,0,0,0
0,0,51,-125,-2229,594,-31,-2,222,0,0,0,0,0,0,0,0,0,0,0
0,0,50,-123,-2231,594,-31,-2,221,0,0,0,0,0,0,0,0,0,0,0
0,0,53,-126,-2224,594,-33,-3,225,0,0,0,0,0,0,0,0,0,0,0
0,0,50,-126,-2235,594,-34,-2,211,0,0,0,0,0,0,0,0,0,0,0
0,0,53,-126,-2233,596,-34,-3,217,0,0,0,0,0,0,0,0,0,0,0
0,0,55,-125,-2227,596,-32,-4,227,0,0,0,0,0,0,0,0,0,0,0
0,0,50,-125,-2228,596,-32,-3,222,0,0,0,0,0,0,0,0,0,0,0
0,0,45,-119,-2228,595,-31,-1,225,0,0,0,0,0,0,0,0,0,0,0
0,0,49,-123,-2246,596,-32,-3,205,0,0,0,0,0,0,0,0,0,0,0
0,0,56,-130,-2227,595,-31,-2,225,0,0,0,0,0,0,0,0,0,0,0
0,0,56,-117,-2250,595,-32,-1,215,0,0,0,0,0,0,0,0,0,0,0
0,0,54,-114,-2240,595,-32,-3,224,0,0,0,0,0,0,0,0,0,0,0
0,0,48,-121,-2238,596,-33,-1,215,0,0,0,0,0,0,0,0,0,0,0
0,0,47,-125,-2232,595,-32,-3,214,0,0,0,0,0,0,0,0,0,0,0
0,0,47,-126,-2225,597,-32,-1,224,0,0,0,0,0,0,0,0,0,0,0
0,0,50,-118,-2240,595,-31,-1,219,0,0,0,0,0,0,0,0,0,0,0
0,0,46,-121,-2234,595,-32,-2,216,0,0,0,0,0,0,0,0,0,0,0
0,0,51,-124,-2229,597,-32,-2,225,0,0,0,0,0,0,0,0,0,0,0
0,0,45,-126,-2239,595,-32,-2,205,0,0,0,0,0,0,0,0,0,0,0
0,0,47,-125,-2225,595,-33,-1,222,0,0,0,0,0,0,0,0,0,0,0
0,0,50,-123,-2225,597,-31,-1,231,0,0,0,0,0,0,0,0,0,0,0
0,0,49,-129,-2227,597,-33,-4,217,0,0,0,0,0,0,0,0,0,0,0
0,0,45,-123,-2230,596,-31,-3,218,0,0,0,0,0,0,0,0,0,0,0
0,0,52,-124,-2226,596,-32,-3,227,0,0,0,0,0,0,0,0,0,0,0
0,0,41,-120,-2227,595,-32,-2,219,0,0,0,0,0,0,0,0,0,0,0
0,0,51,-127,-2233,594,-32,-2,215,0,0,0,0,0,0,0,0,0,0,0
0,0,43,-119,-2238,596,-32,-2,212,0,0,0,0,0,0,0,0,0,0,0
0,0,49,-121,-2234,596,-34,-2,218,0,0,0,0,0,0,0,0,0,0,0
0,0,55,-118,-2226,595,-31,-2,237,0,0,0,0,0,0,0,0,0,0,0
0,0,56,-120,-2245,595,-33,-2,215,0,0,0,0,0,0,0,0,0,0,0
0,0,50,-124,-2237,596,-32,-2,215,0,0,0,0,0,0,0,0,0,0,0
0,0,48,-119,-2238,596,-31,-2,218,0,0,0,0,0,0,0,0,0,0,0
0,0,52,-127,-2235,594,-31,-1,216,0,0,0,0,0,0,0,0,0,0,0
0,0,54,-124,-2234,594,-32,-2,220,0,0,0,0,0,0,0,0,0,0,0
0,0,53,-124,-2237,594,-32,-2,216,0,0,0,0,0,0,0,0,0,0,0
0,0,53,-129,-2242,596,-33,-4,205,0,0,0,0,0,0,0,0,0,0,0
0,0,49,-130,-2240,595,-32,-2,204,0,0,0,0,0,0,0,0,0,0,0
0,0,54,-122,-2236,595,-31,-3,221,0,0,0,0,0,0,0,0,0,0,0
0,0,47,-128,-2228,597,-32,-2,218,0,0,0,0,0,0,0,0,0,0,0
0,0,43,-124,-2235,595,-31,-3,209,0,0,0,0,0,0,0,0,0,0,0
0,0,58,-122,-2242,597,-33,-1,221,0,0,0,0,0,0,0,0,0,0,0
0,0,50,-120,-2235,595,-31,-3,220,0,0,0,0,0,0,0,0,0,0,0
0,0,54,-116,-2246,596,-32,-2,218,0,0,0,0,0,0,0,0,0,0,0
0,0,49,-120,-2229,595,-31,-2,226,0,0,0,0,0,0,0,0,0,0,0
0,0,51,-124,-2228,595,-32,-3,223,0,0,0,0,0,0,0,0,0,0,0
0,0,52,-127,-2232,596,-33,-2,218,0,0,0,0,0,0,0,0,0,0,0
0,0,46,-127,-2218,596,-31,-3,227,0,0,0,0,0,0,0,0,0,0,0
0,0,47,-127,-2232,595,-32,-2,213,0,0,0,0,0,0,0,0,0,0,0
0,0,52,-119,-2232,596,-34,-2,225,0,0,0,0,0,0,0,0,0,0,0
0,0,43,-122,-2235,594,-33,-2,209,0,0,0,0,0,0,0,0,0,0,0
0,0,56,-118,-2224,595,-31,-1,241,0,0,0,0,0,0,0,0,0,0,0
0,0,52,-125,-2229,594,-32,-2,222,0,0,0,0,0,0,0,0,0,0,0
0,0,54,-121,-2230,596,-32,-2,229,0,0,0,0,0,0,0,0,0,0,0
0,0,57,-124,-2233,595,-32,-2,225,0,0,0,0,0,0,0,0,0,0,0
0,0,51,-119,-2237,595,-32,-1,221,0,0,0,0,0,0,0,0,0,0,0
0,0,53,-118,-2237,596,-31,-2,225,0,0,0,0,0,0,0,0,0,0,0
0,0,47,-123,-2235,595,-32,-2,214,0,0,0,0,0,0,0,0,0,0,0
0,0,60,-126,-2240,595,-32,-2,219,0,0,0,0,0,0,0,0,0,0,0
0,0,60,-125,-2225,595,-32,-1,236,0,0,0,0,0,0,0,0,0,0,0
0,0,47,-120,-2233,596,-33,-2,219,0,0,0,0,0,0,0,0,0,0,0
0,0,56,-124,-2240,595,-32,-1,218,0,0,0,0,0,0,0,0,0,0,0
0,0,52,-126,-2239,596,-32,-2,213,0,0,0,0,0,0,0,0,0,0,0
0,0,40,-126,-2238,596,-32,-2,202,0,0,0,0,0,0,0,0,0,0,0
0,0,48,-123,-2236,597,-31,-1,218,0,0,0,0,0,0,0,0,0,0,0
0,0,48,-123,-2240,596,-31,-2,212,0,0,0,0,0,0,0,0,0,0,0
0,0,46,-121,-2229,594,-33,-3,218,0,0,0,0,0,0,0,0,0,0,0
0,0,50,-127,-2230,597,-33,-2,219,0,0,0,0,0,0,0,0,0,0,0
0,0,55,-128,-2234,595,-31,-2,219,0,0,0,0,0,0,0,0,0,0,0
0,0,52,-120,-2235,596,-30,0,228,0,0,0,0,0,0,0,0,0,0,0
0,0,46,-124,-2229,595,-32,-3,217,0,0,0,0,0,0,0,0,0,0,0
0,0,49,-124,-2234,595,-33,-2,215,0,0,0,0,0,0,0,0,0,0,0
0,0,44,-128,-2234,595,-31,-2,208,0,0,0,0,0,0,0,0,0,0,0
0,0,48,-135,-2242,596,-31,-2,198,0,0,0,0,0,0,0,0,0,0,0
0,0,46,-122,-2236,595,-32,-2,213,0,0,0,0,0,0,0,0,0,0,0
0,0,52,-114,-2230,596,-31,-1,236,0,0,0,0,0,0,0,0,0,0,0
0,0,55,-121,-2238,596,-32,-2,222,0,0,0,0,0,0,0,0,0,0,0
0,0,50,-127,-2243,596,-32,-2,206,0,0,0,0,0,0,0,0,0,0,0
0,0,49,-123,-2244,595,-33,-2,206,0,0,0,0,0,0,0,0,0,0,0
0,0,49,-127,-2228,596,-32,-3,219,0,0,0,0,0,0,0,0,0,0,0
0,0,53,-124,-2236,595,-33,-1,218,0,0,0,0,0,0,0,0,0,0,0
0,0,49,-122,-2230,596,-32,-1,224,0,0,0,0,0,0,0,0,0,0,0
0,0,56,-128,-2240,595,-32,-2,213,0,0,0,0,0,0,0,0,0,0,0
0,0,63,-128,-2235,595,-32,-1,226,0,0,0,0,0,0,0,0,0,0,0
0,0,49,-127,-2227,594,-31,-1,221,0,0,0,0,0,0,0,0,0,0,0
0,0,52,-126,-2237,595,-32,-2,214,0,0,0,0,0,0,0,0,0,0,0
0,0,49,-119,-2235,596,-33,-3,219,0,0,0,0,0,0,0,0,0,0,0
0,0,51,-122,-2222,596,-32,-1,234,0,0,0,0,0,0,0,0,0,0,0
0,0,44,-126,-2232,595,-31,-2,212,0,0,0,0,0,0,0,0,0,0,0
0,0,50,-125,-2230,595,-31,-1,222,0,0,0,0,0,0,0,0,0,0,0
0,0,46,-124,-2230,594,-32,-3,215,0,0,0,0,0,0,0,0,0,0,0
0,0,49,-133,-2238,596,-33,-3,202,0,0,0,0,0,0,0,0,0,0,0
0,0,52,-117,-2226,597,-31,-2,237,0,0,0,0,0,0,0,0,0,0,0
0,0,45,-120,-2239,596,-32,-2,212,0,0,0,0,0,0,0,0,0,0,0
0,0,47,-126,-2242,596,-33,-1,205,0,0,0,0,0,0,0,0,0,0,0
0,0,48,-130,-2228,594,-33,-2,213,0,0,0,0,0,0,0,0,0,0,0
0,0,42,-129,-2236,595,-31,-2,203,0,0,0,0,0,0,0,0,0,0,0
0,0,46,-123,-2234,595,-32,-2,214,0,0,0,0,0,0,0,0,0,0,0
0,0,52,-128,-2240,595,-32,-1,210,0,0,0,0,0,0,0,0,0,0,0
0,0,56,-116,-2243,595,-32,-2,222,0,0,0,0,0,0,0,0,0,0,0
0,0,55,-123,-2216,595,-32,-2,241,0,0,0,0,0,0,0,0,0,0,0
0,0,51,-121,-2225,595,-32,-2,230,0,0,0,0,0,0,0,0,0,0,0
0,0,49,-116,-2230,595,-32,-1,229,0,0,0,0,0,0,0,0,0,0,0
0,0,51,-123,-2229,596,-31,-1,227,0,0,0,0,0,0,0,0,0,0,0
0,0,45,-120,-2240,597,-32,-2,212,0,0,0,0,0,0,0,0,0,0,0
0,0,52,-120,-2229,595,-32,-1,229,0,0,0,0,0,0,0,0,0,0,0
0,0,49,-124,-2236,596,-34,-2,213,0,0,0,0,0,0,0,0,0,0,0
0,0,46,-123,-2237,596,-32,-2,212,0,0,0,0,0,0,0,0,0,0,0
0,0,58,-129,-2224,596,-32,-3,230,0,0,0,0,0,0,0,0,0,0,0
0,0,49,-116,-2227,594,-33,-3,228,0,0,0,0,0,0,0,0,0,0,0
0,0,49,-115,-2240,596,-32,-4,218,0,0,0,0,0,0,0,0,0,0,0
0,0,45,-126,-2248,596,-32,-2,197,0,0,0,0,0,0,0,0,0,0,0
0,0,41,-126,-2238,596,-32,-2,203,0,0,0,0,0,0,0,0,0,0,0
0,0,44,-120,-2245,596,-31,-3,205,0,0,0,0,0,0,0,0,0,0,0
0,0,51,-121,-2233,595,-31,-2,223,0,0,0,0,0,0,0,0,0,0,0
0,0,52,-119,-2233,597,-32,-1,228,0,0,0,0,0,0,0,0,0,0,0
0,0,53,-116,-2230,594,-32,-2,231,0,0,0,0,0,0,0,0,0,0,0
0,0,41,-128,-2234,595,-32,-4,202,0,0,0,0,0,0,0,0,0,0,0
0,0,50,-133,-2238,595,-34,-1,203,0,0,0,0,0,0,0,0,0,0,0
0,0,54,-124,-2241,597,-33,-3,214,0,0,0,0,0,0,0,0,0,0,0
0,0,51,-127,-2226,594,-32,-1,223,0,0,0,0,0,0,0,0,0,0,0
0,0,56,-124,-2232,595,-31,-1,227,0,0,0,0,0,0,0,0,0,0,0
0,0,54,-121,-2242,596,-32,-1,218,0,0,0,0,0,0,0,0,0,0,0
0,0,47,-117,-2235,595,-32,-2,220,0,0,0,0,0,0,0,0,0,0,0
0,0,53,-119,-2242,596,-32,0,221,0,0,0,0,0,0,0,0,0,0,0
0,0,57,-117,-2229,596,-32,-1,238,0,0,0,0,0,0,0,0,0,0,0
0,0,45,-119,-2227,595,-32,-2,224,0,0,0,0,0,0,0,0,0,0,0
0,0,49,-128,-2221,595,-31,-2,226,0,0,0,0,0,0,0,0,0,0,0
0,0,49,-128,-2222,596,-32,-2,225,0,0,0,0,0,0,0,0,0,0,0
0,0,49,-128,-2232,594,-32,-2,213,0,0,0,0,0,0,0,0,0,0,0
0,0,46,-119,-2238,596,-32,-2,215,0,0,0,0,0,0,0,0,0,0,0
0,0,42,-127,-2227,596,-32,-2,214,0,0,0,0,0,0,0,0,0,0,0
0,0,46,-124,-2239,595,-32,-3,207,0,0,0,0,0,0,0,0,0,0,0
0,0,48,-125,-2230,595,-33,-2,217,0,0,0,0,0,0,0,0,0,0,0
0,0,55,-124,-2235,596,-31,-2,223,0,0,0,0,0,0,0,0,0,0,0
0,0,54,-119,-2231,595,-31,-3,229,0,0,0,0,0,0,0,0,0,0,0
0,0,47,-111,-2237,596,-32,-2,225,0,0,0,0,0,0,0,0,0,0,0
0,0,51,-120,-2229,595,-31,-2,228,0,0,0,0,0,0,0,0,0,0,0
0,0,55,-120,-2230,595,-32,-1,231,0,0,0,0,0,0,0,0,0,0,0
0,0,50,-119,-2236,595,-33,-1,220,0,0,0,0,0,0,0,0,0,0,0
0,0,52,-125,-2239,595,-31,-2,214,0,0,0,0,0,0,0,0,0,0,0
0,0,49,-119,-2233,595,-33,-2,221,0,0,0,0,0,0,0,0,0,0,0
0,0,42,-118,-2227,595,-32,-2,222,0,0,0,0,0,0,0,0,0,0,0
0,0,49,-134,-2232,596,-32,-1,210,0,0,0,0,0,0,0,0,0,0,0
0,0,51,-125,-2234,596,-32,-2,218,0,0,0,0,0,0,0,0,0,0,0
0,0,52,-115,-2233,596,-33,-2,229,0,0,0,0,0,0,0,0,0,0,0
0,0,43,-124,-2235,596,-33,-2,209,0,0,0,0,0,0,0,0,0,0,0
0,0,43,-118,-2235,596,-31,-1,218,0,0,0,0,0,0,0,0,0,0,0
0,0,48,-125,-2242,595,-32,-1,207,0,0,0,0,0,0,0,0,0,0,0
0,0,55,-127,-2235,596,-32,-1,220,0,0,0,0,0,0,0,0,0,0,0
0,0,48,-121,-2234,597,-31,-2,221,0,0,0,0,0,0,0,0,0,0,0
0,0,51,-128,-2237,596,-32,-1,213,0,0,0,0,0,0,0,0,0,0,0
0,0,50,-123,-2229,594,-30,-3,223,0,0,0,0,0,0,0,0,0,0,0
0,0,53,-123,-2239,595,-31,-3,216,0,0,0,0,0,0,0,0,0,0,0
0,0,51,-127,-2229,595,-32,-2,220,0,0,0,0,0,0,0,0,0,0,0
0,0,51,-131,-2244,596,-33,-2,201,0,0,0,0,0,0,0,0,0,0,0
0,0,50,-127,-2227,595,-31,-2,222,0,0,0,0,0,0,0,0,0,0,0
0,0,53,-118,-2229,596,-31,-2,233,0,0,0,0,0,0,0,0,0,0,0
0,0,52,-123,-2233,595,-31,-3,221,0,0,0,0,0,0,0,0,0,0,0
0,0,54,-126,-2226,596,-31,-2,229,0,0,0,0,0,0,0,0,0,0,0
0,0,52,-122,-2238,595,-31,-2,218,0,0,0,0,0,0,0,0,0,0,0
0,0,54,-121,-2229,596,-31,-1,232,0,0,0,0,0,0,0,0,0,0,0
0,0,51,-122,-2232,595,-31,-1,224,0,0,0,0,0,0,0,0,0,0,0
0,0,51,-120,-2233,595,-33,-2,222,0,0,0,0,0,0,0,0,0,0,0
0,0,53,-130,-2222,595,-32,-2,226,0,0,0,0,0,0,0,0,0,0,0
0,0,43,-121,-2225,596,-31,-2,224,0,0,0,0,0,0,0,0,0,0,0
0,0,44,-126,-2233,596,-31,-2,212,0,0,0,0,0,0,0,0,0,0,0
0,0,52,-126,-2243,595,-31,-1,210,0,0,0,0,0,0,0,0,0,0,0
0,0,53,-122,-2238,594,-32,-2,217,0,0,0,0,0,0,0,0,0,0,0
0,0,54,-123,-2238,595,-32,-2,218,0,0,0,0,0,0,0,0,0,0,0
0,0,53,-119,-2235,596,-31,-3,225,0,0,0,0,0,0,0,0,0,0,0
0,0,46,-124,-2229,594,-32,-2,217,0,0,0,0,0,0,0,0,0,0,0
0,0,48,-125,-2238,595,-32,-2,210,0,0,0,0,0,0,0,0,0,0,0
0,0,50,-119,-2230,595,-32,-2,226,0,0,0,0,0,0,0,0,0,0,0
0,0,49,-122,-2220,596,-32,-2,233,0,0,0,0,0,0,0,0,0,0,0
0,0,54,-127,-2244,595,-31,-1,210,0,0,0,0,0,0,0,0,0,0,0
0,0,56,-116,-2238,596,-31,-3,228,0,0,0,0,0,0,0,0,0,0,0
0,0,55,-131,-2232,595,-32,0,220,0,0,0,0,0,0,0,0,0,0,0
0,0,56,-124,-2239,596,-32,-1,220,0,0,0,0,0,0,0,0,0,0,0
0,0,53,-122,-2240,596,-32,-1,218,0,0,0,0,0,0,0,0,0,0,0
0,0,53,-116,-2243,595,-31,-2,220,0,0,0,0,0,0,0,0,0,0,0
0,0,47,-126,-2237,596,-32,-2,210,0,0,0,0,0,0,0,0,0,0,0
0,0,49,-117,-2236,596,-31,-2,223,0,0,0,0,0,0,0,0,0,0,0
0,0,43,-125,-2247,596,-33,-2,196,0,0,0,0,0,0,0,0,0,0,0
0,0,46,-128,-2236,595,-33,-1,207,0,0,0,0,0,0,0,0,0,0,0
0,0,44,-123,-2237,595,-31,-3,209,0,0,0,0,0,0,0,0,0,0,0
0,0,51,-126,-2235,595,-32,-2,215,0,0,0,0,0,0,0,0,0,0,0
0,0,46,-117,-2229,596,-32,-2,226,0,0,0,0,0,0,0,0,0,0,0
0,0,57,-115,-2233,595,-32,-1,235,0,0,0,0,0,0,0,0,0,0,0
0,0,49,-126,-2243,595,-33,-2,204,0,0,0,0,0,0,0,0,0,0,0
0,0,45,-131,-2238,596,-32,0,205,0,0,0,0,0,0,0,0,0,0,0
0,0,44,-130,-2227,595,-32,-3,211,0,0,0,0,0,0,0,0,0,0,0
0,0,56,-123,-2245,595,-33,-2,212,0,0,0,0,0,0,0,0,0,0,0
0,0,59,-128,-2237,596,-32,-2,220,0,0,0,0,0,0,0,0,0,0,0
0,0,53,-129,-2230,596,-33,-1,220,0,0,0,0,0,0,0,0,0,0,0
0,0,51,-126,-2237,596,-33,-2,213,0,0,0,0,0,0,0,0,0,0,0
0,0,52,-129,-2249,595,-33,0,201,0,0,0,0,0,0,0,0,0,0,0
0,0,43,-125,-2224,596,-32,-2,220,0,0,0,0,0,0,0,0,0,0,0
0,0,44,-133,-2224,596,-31,-1,215,0,0,0,0,0,0,0,0,0,0,0
0,0,56,-130,-2229,595,-33,-2,221,0,0,0,0,0,0,0,0,0,0,0
0,0,49,-129,-2232,594,-33,0,214,0,0,0,0,0,0,0,0,0,0,0
0,0,44,-131,-2243,596,-31,-1,198,0,0,0,0,0,0,0,0,0,0,0
0,0,45,-130,-2232,595,-32,-1,209,0,0,0,0,0,0,0,0,0,0,0
0,0,46,-124,-2242,597,-31,-1,209,0,0,0,0,0,0,0,0,0,0,0
0,0,56,-124,-2237,596,-31,-1,223,0,0,0,0,0,0,0,0,0,0,0
0,0,51,-124,-2234,596,-32,-1,220,0,0,0,0,0,0,0,0,0,0,0
0,0,47,-127,-2238,596,-32,-3,207,0,0,0,0,0,0,0,0,0,0,0
0,0,52,-124,-2236,596,-33,-3,216,0,0,0,0,0,0,0,0,0,0,0
0,0,44,-130,-2235,595,-32,-3,203,0,0,0,0,0,0,0,0,0,0,0
0,0,44,-119,-2227,595,-32,-3,222,0,0,0,0,0,0,0,0,0,0,0
0,0,54,-118,-2224,594,-32,-2,236,0,0,0,0,0,0,0,0,0,0,0
0,0,49,-131,-2227,594,-33,-2,214,0,0,0,0,0,0,0,0,0,0,0
0,0,52,-120,-2242,596,-32,-3,215,0,0,0,0,0,0,0,0,0,0,0
0,0,49,-122,-2238,594,-33,-1,213,0,0,0,0,0,0,0,0,0,0,0
0,0,57,-127,-2229,595,-32,0,229,0,0,0,0,0,0,0,0,0,0,0
0,0,52,-127,-2237,597,-31,-1,217,0,0,0,0,0,0,0,0,0,0,0
0,0,49,-122,-2231,595,-32,-1,222,0,0,0,0,0,0,0,0,0,0,0
0,0,48,-119,-2232,596,-33,-1,223,0,0,0,0,0,0,0,0,0,0,0
0,0,45,-125,-2233,595,-33,-1,212,0,0,0,0,0,0,0,0,0,0,0
0,0,45,-128,-2241,597,-31,-2,204,0,0,0,0,0,0,0,0,0,0,0
0,0,47,-124,-2243,595,-30,-1,208,0,0,0,0,0,0,0,0,0,0,0
0,0,51,-127,-2249,596,-31,-2,202,0,0,0,0,0,0,0,0,0,0,0
0,0,46,-125,-2234,595,-31,-2,213,0,0,0,0,0,0,0,0,0,0,0
0,0,54,-123,-2234,596,-32,-2,223,0,0,0,0,0,0,0,0,0,0,0
0,0,55,-125,-2226,595,-31,-1,231,0,0,0,0,0,0,0,0,0,0,0
0,0,58,-119,-2232,594,-32,-1,232,0,0,0,0,0,0,0,0,0,0,0
0,0,56,-125,-2243,596,-32,-2,214,0,0,0,0,0,0,0,0,0,0,0
0,0,48,-120,-2235,596,-32,-2,219,0,0,0,0,0,0,0,0,0,0,0
0,0,50,-127,-2228,598,-33,-2,222,0,0,0,0,0,0,0,0,0,0,0
0,0,52,-127,-2229,596,-32,-3,221,0,0,0,0,0,0,0,0,0,0,0
0,0,49,-124,-2231,596,-32,-2,220,0,0,0,0,0,0,0,0,0,0,0
0,0,51,-127,-2238,597,-31,-2,214,0,0,0,0,0,0,0,0,0,0,0
0,0,52,-124,-2235,595,-32,-3,217,0,0,0,0,0,0,0,0,0,0,0
0,0,50,-127,-2237,595,-32,-2,211,0,0,0,0,0,0,0,0,0,0,0
0,0,46,-123,-2227,596,-32,-2,222,0,0,0,0,0,0,0,0,0,0,0
0,0,41,-119,-2235,595,-32,-3,211,0,0,0,0,0,0,0,0,0,0,0
0,0,46,-120,-2237,595,-32,-2,214,0,0,0,0,0,0,0,0,0,0,0
0,0,51,-124,-2226,595,-31,-2,227,0,0,0,0,0,0,0,0,0,0,0
0,0,46,-130,-2225,595,-34,-1,215,0,0,0,0,0,0,0,0,0,0,0
0,0,52,-125,-2236,595,-34,-1,215,0,0,0,0,0,0,0,0,0,0,0
0,0,54,-122,-2240,596,-32,0,221,0,0,0,0,0,0,0,0,0,0,0
0,0,50,-119,-2232,594,-33,-1,223,0,0,0,0,0,0,0,0,0,0,0
0,0,45,-121,-2229,594,-32,-4,217,0,0,0,0,0,0,0,0,0,0,0
0,0,52,-132,-2230,595,-33,-3,213,0,0,0,0,0,0,0,0,0,0,0
0,0,52,-125,-2235,596,-33,-2,217,0,0,0,0,0,0,0,0,0,0,0
0,0,50,-125,-2222,595,-31,-2,229,0,0,0,0,0,0,0,0,0,0,0
0,0,46,-127,-2234,596,-32,-2,211,0,0,0,0,0,0,0,0,0,0,0
0,0,49,-125,-2226,595,-32,-2,223,0,0,0,0,0,0,0,0,0,0,0
0,0,53,-120,-2232,595,-33,-1,226,0,0,0,0,0,0,0,0,0,0,0
0,0,46,-120,-2236,596,-33,-3,214,0,0,0,0,0,0,0,0,0,0,0
0,0,51,-129,-2246,595,-32,-2,201,0,0,0,0,0,0,0,0,0,0,0
0,0,54,-116,-2236,597,-32,-1,230,0,0,0,0,0,0,0,0,0,0,0
0,0,50,-131,-2237,597,-32,-2,209,0,0,0,0,0,0,0,0,0,0,0
0,0,56,-122,-2233,596,-32,-1,228,0,0,0,0,0,0,0,0,0,0,0
0,0,52,-119,-2234,596,-32,-2,225,0,0,0,0,0,0,0,0,0,0,0
0,0,49,-128,-2236,595,-32,0,213,0,0,0,0,0,0,0,0,0,0,0
0,0,50,-124,-2237,593,-32,-1,213,0,0,0,0,0,0,0,0,0,0,0
0,0,47,-128,-2233,595,-33,-2,210,0,0,0,0,0,0,0,0,0,0,0
0,0,40,-124,-2228,595,-33,-3,211,0,0,0,0,0,0,0,0,0,0,0
0,0,47,-131,-2236,596,-32,-2,206,0,0,0,0,0,0,0,0,0,0,0
0,0,50,-125,-2243,595,-32,-2,207,0,0,0,0,0,0,0,0,0,0,0
0,0,57,-127,-2235,596,-32,-3,220,0,0,0,0,0,0,0,0,0,0,0
0,0,59,-126,-2229,596,-32,-2,230,0,0,0,0,0,0,0,0,0,0,0
0,0,51,-127,-2236,594,-32,0,215,0,0,0,0,0,0,0,0,0,0,0
0,0,49,-124,-2242,594,-32,-3,206,0,0,0,0,0,0,0,0,0,0,0
0,0,53,-125,-2234,595,-32,-2,219,0,0,0,0,0,0,0,0,0,0,0
0,0,50,-116,-2228,595,-32,-2,231,0,0,0,0,0,0,0,0,0,0,0
0,0,48,-119,-2235,595,-33,-1,219,0,0,0,0,0,0,0,0,0,0,0
0,0,52,-122,-2233,594,-33,-2,220,0,0,0,0,0,0,0,0,0,0,0
0,0,58,-116,-2238,594,-32,-1,229,0,0,0,0,0,0,0,0,0,0,0
0,0,49,-127,-2228,594,-32,-2,218,0,0,0,0,0,0,0,0,0,0,0
0,0,51,-124,-2229,595,-33,-3,221,0,0,0,0,0,0,0,0,0,0,0
0,0,51,-125,-2233,595,-32,-2,218,0,0,0,0,0,0,0,0,0,0,0
0,0,54,-119,-2236,596,-32,-3,224,0,0,0,0,0,0,0,0,0,0,0
0,0,47,-130,-2238,595,-32,-2,204,0,0,0,0,0,0,0,0,0,0,0
0,0,50,-116,-2239,595,-32,-2,220,0,0,0,0,0,0,0,0,0,0,0
0,0,54,-128,-2235,595,-31,-3,216,0,0,0,0,0,0,0,0,0,0,0
0,0,50,-122,-2240,595,-31,-1,215,0,0,0,0,0,0,0,0,0,0,0
0,0,50,-122,-2233,596,-35,0,221,0,0,0,0,0,0,0,0,0,0,0
0,0,51,-126,-2232,596,-32,-2,219,0,0,0,0,0,0,0,0,0,0,0
0,0,49,-122,-2233,595,-33,0,221,0,0,0,0,0,0,0,0,0,0,0
0,0,48,-129,-2237,594,-33,-1,206,0,0,0,0,0,0,0,0,0,0,0
0,0,50,-126,-2241,595,-32,-1,209,0,0,0,0,0,0,0,0,0,0,0
0,0,50,-126,-2234,594,-31,-2,215,0,0,0,0,0,0,0,0,0,0,0
0,0,48,-127,-2248,595,-31,-1,200,0,0,0,0,0,0,0,0,0,0,0
0,0,54,-120,-2236,596,-32,0,227,0,0,0,0,0,0,0,0,0,0,0
0,0,57,-124,-2234,594,-32,0,226,0,0,0,0,0,0,0,0,0,0,0
0,0,49,-128,-2235,596,-32,-3,211,0,0,0,0,0,0,0,0,0,0,0
0,0,56,-127,-2242,597,-32,-3,213,0,0,0,0,0,0,0,0,0,0,0
0,0,47,-125,-2238,595,-32,0,212,0,0,0,0,0,0,0,0,0,0,0
0,0,49,-127,-2232,596,-31,-2,217,0,0,0,0,0,0,0,0,0,0,0
0,0,48,-123,-2231,595,-32,-3,218,0,0,0,0,0,0,0,0,0,0,0
0,0,53,-120,-2241,595,-32,-2,217,0,0,0,0,0,0,0,0,0,0,0
0,0,52,-122,-2233,596,-33,-2,222,0,0,0,0,0,0,0,0,0,0,0
0,0,49,-117,-2235,595,-33,-3,220,0,0,0,0,0,0,0,0,0,0,0
0,0,51,-116,-2234,595,-32,-2,226,0,0,0,0,0,0,0,0,0,0,0
0,0,51,-120,-2231,595,-32,-2,225,0,0,0,0,0,0,0,0,0,0,0
0,0,54,-123,-2244,595,-32,-2,212,0,0,0,0,0,0,0,0,0,0,0
0,0,51,-123,-2229,595,-33,-3,222,0,0,0,0,0,0,0,0,0,0,0
0,0,55,-120,-2235,593,-30,-2,225,0,0,0,0,0,0,0,0,0,0,0
0,0,54,-126,-2235,596,-31,-2,220,0,0,0,0,0,0,0,0,0,0,0
0,0,50,-121,-2239,595,-31,-4,214,0,0,0,0,0,0,0,0,0,0,0
0,0,56,-123,-2228,595,-31,-2,231,0,0,0,0,0,0,0,0,0,0,0
0,0,51,-123,-2233,595,-32,0,223,0,0,0,0,0,0,0,0,0,0,0
0,0,48,-116,-2237,595,-33,-2,219,0,0,0,0,0,0,0,0,0,0,0
0,0,46,-127,-2238,595,-31,-4,205,0,0,0,0,0,0,0,0,0,0,0
0,0,44,-127,-2236,596,-32,-3,206,0,0,0,0,0,0,0,0,0,0,0
0,0,55,-124,-2236,595,-33,-1,220,0,0,0,0,0,0,0,0,0,0,0
0,0,47,-121,-2228,596,-32,-2,224,0,0,0,0,0,0,0,0,0,0,0
0,0,53,-123,-2216,596,-34,-1,239,0,0,0,0,0,0,0,0,0,0,0
0,0,46,-124,-2227,596,-32,-2,221,0,0,0,0,0,0,0,0,0,0,0
0,0,46,-126,-2233,597,-31,-1,216,0,0,0,0,0,0,0,0,0,0,0
0,0,38,-123,-2226,595,-31,-2,215,0,0,0,0,0,0,0,0,0,0,0
0,0,54,-128,-2240,595,-32,-1,212,0,0,0,0,0,0,0,0,0,0,0
0,0,55,-120,-2238,595,-31,-1,224,0,0,0,0,0,0,0,0,0,0,0
0,0,48,-127,-2242,598,-32,1,211,0,0,0,0,0,0,0,0,0,0,0
0,0,49,-127,-2228,595,-34,-1,218,0,0,0,0,0,0,0,0,0,0,0
0,0,51,-128,-2245,598,-34,-2,204,0,0,0,0,0,0,0,0,0,0,0
0,0,54,-119,-2240,595,-33,-2,219,0,0,0,0,0,0,0,0,0,0,0
0,0,56,-117,-2242,594,-34,-1,220,0,0,0,0,0,0,0,0,0,0,0
0,0,50,-116,-2236,595,-33,-2,222,0,0,0,0,0,0,0,0,0,0,0
0,0,42,-123,-2236,595,-32,-1,209,0,0,0,0,0,0,0,0,0,0,0
0,0,44,-124,-2235,596,-32,-3,210,0,0,0,0,0,0,0,0,0,0,0
0,0,51,-127,-2233,596,-32,-3,216,0,0,0,0,0,0,0,0,0,0,0
0,0,49,-120,-2233,595,-33,-3,219,0,0,0,0,0,0,0,0,0,0,0
0,0,51,-126,-2241,594,-32,-2,208,0,0,0,0,0,0,0,0,0,0,0
0,0,52,-124,-2234,596,-33,-2,219,0,0,0,0,0,0,0,0,0,0,0
0,0,48,-126,-2230,596,-33,-2,217,0,0,0,0,0,0,0,0,0,0,0
0,0,59,-129,-2243,597,-31,-2,215,0,0,0,0,0,0,0,0,0,0,0
0,0,50,-118,-2235,597,-31,-1,226,0,0,0,0,0,0,0,0,0,0,0
0,0,44,-118,-2238,597,-32,-2,215,0,0,0,0,0,0,0,0,0,0,0
0,0,44,-128,-2236,597,-33,-2,206,0,0,0,0,0,0,0,0,0,0,0
0,0,54,-120,-2245,596,-33,-1,215,0,0,0,0,0,0,0,0,0,0,0
0,0,46,-117,-2234,596,-32,-2,221,0,0,0,0,0,0,0,0,0,0,0
0,0,49,-129,-2246,595,-32,-3,198,0,0,0,0,0,0,0,0,0,0,0
0,0,50,-132,-2234,594,-32,-2,208,0,0,0,0,0,0,0,0,0,0,0
0,0,50,-120,-2238,595,-31,-1,219,0,0,0,0,0,0,0,0,0,0,0
0,0,52,-123,-2243,595,-33,-2,210,0,0,0,0,0,0,0,0,0,0,0
0,0,54,-127,-2231,596,-33,0,224,0,0,0,0,0,0,0,0,0,0,0
0,0,47,-127,-2234,595,-33,-3,209,0,0,0,0,0,0,0,0,0,0,0
0,0,57,-124,-2236,596,-32,-2,223,0,0,0,0,0,0,0,0,0,0,0
0,0,51,-125,-2238,596,-32,-2,214,0,0,0,0,0,0,0,0,0,0,0
0,0,54,-126,-2236,595,-31,-3,217,0,0,0,0,0,0,0,0,0,0,0
0,0,54,-128,-2236,594,-31,-2,215,0,0,0,0,0,0,0,0,0,0,0
0,0,53,-126,-2234,595,-32,-1,219,0,0,0,0,0,0,0,0,0,0,0
0,0,54,-128,-2234,595,-32,-2,217,0,0,0,0,0,0,0,0,0,0,0
0,0,45,-127,-2237,595,-31,-1,208,0,0,0,0,0,0,0,0,0,0,0
0,0,46,-129,-2247,596,-31,-2,197,0,0,0,0,0,0,0,0,0,0,0
0,0,54,-118,-2240,596,-31,-3,222,0,0,0,0,0,0,0,0,0,0,0
0,0,57,-118,-2236,595,-31,-3,228,0,0,0,0,0,0,0,0,0,0,0
0,0,53,-121,-2237,595,-32,-2,220,0,0,0,0,0,0,0,0,0,0,0
0,0,55,-130,-2227,596,-33,-2,223,0,0,0,0,0,0,0,0,0,0,0
0,0,54,-124,-2234,595,-30,-2,223,0,0,0,0,0,0,0,0,0,0,0
0,0,55,-130,-2228,597,-31,-1,226,0,0,0,0,0,0,0,0,0,0,0
0,0,53,-123,-2240,596,-32,-2,216,0,0,0,0,0,0,0,0,0,0,0
0,0,45,-123,-2242,595,-32,-1,206,0,0,0,0,0,0,0,0,0,0,0
0,0,53,-118,-2240,597,-34,0,223,0,0,0,0,0,0,0,0,0,0,0
0,0,54,-120,-2233,595,-32,-2,226,0,0,0,0,0,0,0,0,0,0,0
0,0,54,-122,-2232,595,-32,-1,226,0,0,0,0,0,0,0,0,0,0,0
0,0,58,-124,-2233,595,-32,-2,226,0,0,0,0,0,0,0,0,0,0,0
0,0,53,-123,-2248,595,-32,0,210,0,0,0,0,0,0,0,0,0,0,0
0,0,49,-122,-2238,595,-33,-1,214,0,0,0,0,0,0,0,0,0,0,0
0,0,46,-117,-2228,595,-31,-2,227,0,0,0,0,0,0,0,0,0,0,0
0,0,54,-120,-2241,595,-32,-1,219,0,0,0,0,0,0,0,0,0,0,0
0,0,49,-126,-2231,597,-32,-3,218,0,0,0,0,0,0,0,0,0,0,0
0,0,46,-120,-2246,596,-33,-2,205,0,0,0,0,0,0,0,0,0,0,0
0,0,52,-127,-2234,596,-32,-2,217,0,0,0,0,0,0,0,0,0,0,0
0,0,48,-124,-2238,597,-33,-1,213,0,0,0,0,0,0,0,0,0,0,0
0,0,50,-121,-2241,597,-32,-4,213,0,0,0,0,0,0,0,0,0,0,0
0,0,47,-121,-2241,596,-32,-2,211,0,0,0,0,0,0,0,0,0,0,0
0,0,47,-119,-2241,595,-32,-2,212,0,0,0,0,0,0,0,0,0,0,0
0,0,43,-117,-2230,595,-32,-3,220,0,0,0,0,0,0,0,0,0,0,0
0,0,48,-125,-2233,593,-31,-2,214,0,0,0,0,0,0,0,0,0,0,0
0,0,48,-124,-2237,594,-32,-3,210,0,0,0,0,0,0,0,0,0,0,0
0,0,45,-124,-2230,594,-31,-3,215,0,0,0,0,0,0,0,0,0,0,0
0,0,50,-124,-2238,595,-33,-3,211,0,0,0,0,0,0,0,0,0,0,0
0,0,49,-125,-2239,595,-32,-1,211,0,0,0,0,0,0,0,0,0,0,0
0,0,47,-124,-2236,595,-32,-1,213,0,0,0,0,0,0,0,0,0,0,0
0,0,57,-125,-2229,596,-32,-1,230,0,0,0,0,0,0,0,0,0,0,0
0,0,48,-127,-2234,597,-31,-1,216,0,0,0,0,0,0,0,0,0,0,0
0,0,50,-132,-2233,595,-32,-2,210,0,0,0,0,0,0,0,0,0,0,0
0,0,45,-119,-2227,595,-32,-1,225,0,0,0,0,0,0,0,0,0,0,0
0,0,57,-116,-2234,595,-32,0,235,0,0,0,0,0,0,0,0,0,0,0
0,0,56,-128,-2241,596,-31,-3,213,0,0,0,0,0,0,0,0,0,0,0
0,0,51,-123,-2242,595,-32,-2,211,0,0,0,0,0,0,0,0,0,0,0
0,0,52,-119,-2235,596,-32,-1,225,0,0,0,0,0,0,0,0,0,0,0
0,0,53,-124,-2220,596,-31,-1,237,0,0,0,0,0,0,0,0,0,0,0
0,0,49,-115,-2241,595,-32,-3,217,0,0,0,0,0,0,0,0,0,0,0
0,0,53,-120,-2234,595,-32,-2,224,0,0,0,0,0,0,0,0,0,0,0
0,0,51,-127,-2239,594,-31,-2,210,0,0,0,0,0,0,0,0,0,0,0
0,0,53,-129,-2241,596,-32,-3,208,0,0,0,0,0,0,0,0,0,0,0
0,0,52,-121,-2242,595,-33,-2,213,0,0,0,0,0,0,0,0,0,0,0
0,0,53,-121,-2232,595,-32,-2,225,0,0,0,0,0,0,0,0,0,0,0
0,0,59,-115,-2235,595,-32,-1,235,0,0,0,0,0,0,0,0,0,0,0
0,0,49,-127,-2242,596,-32,-3,205,0,0,0,0,0,0,0,0,0,0,0
0,0,55,-123,-2228,595,-32,-1,230,0,0,0,0,0,0,0,0,0,0,0
0,0,50,-115,-2238,594,-31,-3,221,0,0,0,0,0,0,0,0,0,0,0
0,0,42,-130,-2231,595,-32,0,209,0,0,0,0,0,0,0,0,0,0,0
0,0,49,-125,-2241,596,-31,-2,210,0,0,0,0,0,0,0,0,0,0,0
0,0,44,-127,-2221,594,-31,-3,220,0,0,0,0,0,0,0,0,0,0,0
0,0,54,-122,-2238,596,-32,-3,219,0,0,0,0,0,0,0,0,0,0,0
0,0,48,-130,-2234,596,-31,-2,211,0,0,0,0,0,0,0,0,0,0,0
0,0,48,-121,-2239,595,-30,-3,214,0,0,0,0,0,0,0,0,0,0,0
0,0,43,-128,-2237,596,-31,-2,205,0,0,0,0,0,0,0,0,0,0,0
0,0,53,-123,-2235,595,-32,-2,220,0,0,0,0,0,0,0,0,0,0,0
0,0,52,-124,-2246,597,-33,-2,208,0,0,0,0,0,0,0,0,0,0,0
0,0,55,-128,-2239,595,-33,-3,211,0,0,0,0,0,0,0,0,0,0,0
0,0,47,-124,-2240,596,-33,-1,209,0,0,0,0,0,0,0,0,0,0,0
0,0,41,-121,-2245,595,-33,-2,199,0,0,0,0,0,0,0,0,0,0,0
0,0,44,-115,-2236,597,-32,-2,220,0,0,0,0,0,0,0,0,0,0,0
0,0,49,-121,-2239,596,-32,-3,214,0,0,0,0,0,0,0,0,0,0,0
0,0,58,-117,-2233,596,-32,-1,235,0,0,0,0,0,0,0,0,0,0,0
0,0,54,-123,-2241,595,-31,-1,217,0,0,0,0,0,0,0,0,0,0,0
0,0,56,-128,-2227,595,-31,-4,225,0,0,0,0,0,0,0,0,0,0,0
0,0,49,-130,-2232,595,-32,-4,210,0,0,0,0,0,0,0,0,0,0,0
0,0,60,-112,-2235,595,-32,-2,238,0,0,0,0,0,0,0,0,0,0,0
0,0,56,-114,-2237,595,-32,-1,231,0,0,0,0,0,0,0,0,0,0,0
0,0,47,-118,-2235,596,-32,-2,220,0,0,0,0,0,0,0,0,0,0,0
0,0,48,-113,-2234,597,-33,-2,227,0,0,0,0,0,0,0,0,0,0,0
0,0,54,-123,-2232,596,-32,-3,224,0,0,0,0,0,0,0,0,0,0,0
0,0,56,-119,-2233,595,-31,-2,230,0,0,0,0,0,0,0,0,0,0,0
0,0,54,-120,-2233,596,-31,-2,228,0,0,0,0,0,0,0,0,0,0,0
0,0,51,-120,-2246,595,-34,-4,206,0,0,0,0,0,0,0,0,0,0,0
0,0,44,-122,-2239,596,-32,-3,208,0,0,0,0,0,0,0,0,0,0,0
0,0,53,-122,-2229,594,-32,-2,226,0,0,0,0,0,0,0,0,0,0,0
0,0,42,-112,-2236,595,-33,0,221,0,0,0,0,0,0,0,0,0,0,0
0,0,51,-119,-2229,595,-33,-1,228,0,0,0,0,0,0,0,0,0,0,0
0,0,56,-120,-2220,595,-33,-2,240,0,0,0,0,0,0,0,0,0,0,0
0,0,50,-123,-2236,595,-33,0,218,0,0,0,0,0,0,0,0,0,0,0
0,0,50,-129,-2225,596,-32,-2,222,0,0,0,0,0,0,0,0,0,0,0
0,0,48,-126,-2236,596,-32,-1,213,0,0,0,0,0,0,0,0,0,0,0
0,0,48,-122,-2234,596,-33,-2,217,0,0,0,0,0,0,0,0,0,0,0
0,0,50,-125,-2244,595,-32,-4,204,0,0,0,0,0,0,0,0,0,0,0
0,0,52,-127,-2230,595,-32,-1,221,0,0,0,0,0,0,0,0,0,0,0
0,0,48,-127,-2241,596,-32,-4,204,0,0,0,0,0,0,0,0,0,0,0
0,0,53,-119,-2237,595,-33,-2,221,0,0,0,0,0,0,0,0,0,0,0
0,0,40,-125,-2237,597,-32,-1,206,0,0,0,0,0,0,0,0,0,0,0
0,0,52,-127,-2237,597,-30,-2,217,0,0,0,0,0,0,0,0,0,0,0
0,0,52,-124,-2230,596,-30,-2,226,0,0,0,0,0,0,0,0,0,0,0
0,0,49,-129,-2236,595,-31,-2,210,0,0,0,0,0,0,0,0,0,0,0
0,0,57,-127,-2229,596,-30,-2,229,0,0,0,0,0,0,0,0,0,0,0
0,0,55,-130,-2236,595,-32,-2,214,0,0,0,0,0,0,0,0,0,0,0
0,0,53,-127,-2225,594,-31,-1,227,0,0,0,0,0,0,0,0,0,0,0
0,0,60,-123,-2220,595,-32,-1,243,0,0,0,0,0,0,0,0,0,0,0
0,0,49,-129,-2241,597,-32,-1,207,0,0,0,0,0,0,0,0,0,0,0
0,0,47,-122,-2234,597,-32,-2,218,0,0,0,0,0,0,0,0,0,0,0
0,0,54,-122,-2229,594,-31,-2,228,0,0,0,0,0,0,0,0,0,0,0
0,0,57,-124,-2245,596,-32,-2,214,0,0,0,0,0,0,0,0,0,0,0
0,0,45,-129,-2241,595,-31,-2,201,0,0,0,0,0,0,0,0,0,0,0
0,0,51,-121,-2237,595,-33,-1,218,0,0,0,0,0,0,0,0,0,0,0
0,0,54,-119,-2225,597,-31,-1,239,0,0,0,0,0,0,0,0,0,0,0
0,0,52,-123,-2226,595,-31,-2,229,0,0,0,0,0,0,0,0,0,0,0
0,0,41,-123,-2239,596,-32,-2,205,0,0,0,0,0,0,0,0,0,0,0
0,0,55,-123,-2232,597,-32,-2,227,0,0,0,0,0,0,0,0,0,0,0
0,0,51,-123,-2231,595,-32,-1,223,0,0,0,0,0,0,0,0,0,0,0
0,0,53,-118,-2239,594,-32,-1,221,0,0,0,0,0,0,0,0,0,0,0
0,0,54,-117,-2235,596,-31,-3,228,0,0,0,0,0,0,0,0,0,0,0
0,0,58,-119,-2244,595,-32,-1,221,0,0,0,0,0,0,0,0,0,0,0
0,0,49,-121,-2225,594,-33,-3,225,0,0,0,0,0,0,0,0,0,0,0
0,0,46,-122,-2235,596,-33,-3,213,0,0,0,0,0,0,0,0,0,0,0
0,0,52,-121,-2237,595,-33,-3,217,0,0,0,0,0,0,0,0,0,0,0
0,0,54,-123,-2237,596,-33,-2,219,0,0,0,0,0,0,0,0,0,0,0
0,0,56,-119,-2237,597,-32,-1,228,0,0,0,0,0,0,0,0,0,0,0
0,0,53,-131,-2233,596,-32,-3,214,0,0,0,0,0,0,0,0,0,0,0
0,0,51,-125,-2238,595,-32,-1,214,0,0,0,0,0,0,0,0,0,0,0
0,0,52,-124,-2230,595,-32,-1,224,0,0,0,0,0,0,0,0,0,0,0
0,0,51,-120,-2241,595,-33,-2,214,0,0,0,0,0,0,0,0,0,0,0
0,0,47,-130,-2239,595,-32,-2,203,0,0,0,0,0,0,0,0,0,0,0
0,0,49,-129,-2233,596,-30,-1,216,0,0,0,0,0,0,0,0,0,0,0
0,0,55,-121,-2243,594,-31,-1,217,0,0,0,0,0,0,0,0,0,0,0
0,0,60,-123,-2235,596,-32,-2,228,0,0,0,0,0,0,0,0,0,0,0
0,0,44,-123,-2240,595,-33,-2,205,0,0,0,0,0,0,0,0,0,0,0
0,0,51,-121,-2237,595,-32,-3,217,0,0,0,0,0,0,0,0,0,0,0
0,0,45,-124,-2226,595,-32,-2,220,0,0,0,0,0,0,0,0,0,0,0
0,0,51,-130,-2227,595,-33,-1,219,0,0,0,0,0,0,0,0,0,0,0
0,0,52,-122,-2228,595,-32,-2,227,0,0,0,0,0,0,0,0,0,0,0
0,0,54,-123,-2235,597,-33,-1,223,0,0,0,0,0,0,0,0,0,0,0
0,0,49,-129,-2230,595,-34,-2,213,0,0,0,0,0,0,0,0,0,0,0
0,0,33,-122,-2231,594,-31,-1,206,0,0,0,0,0,0,0,0,0,0,0
0,0,53,-123,-2224,596,-31,-1,234,0,0,0,0,0,0,0,0,0,0,0
0,0,49,-122,-2233,595,-32,-1,220,0,0,0,0,0,0,0,0,0,0,0
0,0,55,-129,-2222,595,-34,-2,227,0,0,0,0,0,0,0,0,0,0,0
0,0,50,-122,-2232,596,-31,-3,222,0,0,0,0,0,0,0,0,0,0,0
0,0,51,-116,-2226,596,-31,-3,235,0,0,0,0,0,0,0,0,0,0,0
0,0,51,-118,-2239,595,-32,-4,217,0,0,0,0,0,0,0,0,0,0,0
0,0,51,-122,-2223,597,-33,-1,233,0,0,0,0,0,0,0,0,0,0,0
0,0,51,-124,-2243,595,-32,-3,208,0,0,0,0,0,0,0,0,0,0,0
0,0,51,-126,-2247,596,-33,-2,203,0,0,0,0,0,0,0,0,0,0,0
0,0,52,-124,-2237,595,-32,-2,216,0,0,0,0,0,0,0,0,0,0,0
0,0,47,-129,-2234,596,-31,-1,212,0,0,0,0,0,0,0,0,0,0,0
0,0,53,-122,-2227,597,-32,-2,231,0,0,0,0,0,0,0,0,0,0,0
0,0,50,-133,-2229,594,-31,-2,213,0,0,0,0,0,0,0,0,0,0,0
0,0,45,-124,-2230,596,-32,-3,216,0,0,0,0,0,0,0,0,0,0,0
0,0,52,-128,-2226,595,-32,-2,223,0,0,0,0,0,0,0,0,0,0,0
0,0,46,-127,-2230,595,-32,-1,215,0,0,0,0,0,0,0,0,0,0,0
0,0,51,-124,-2235,595,-33,-1,217,0,0,0,0,0,0,0,0,0,0,0
0,0,56,-131,-2231,595,-32,-1,220,0,0,0,0,0,0,0,0,0,0,0
0,0,49,-129,-2224,595,-31,-2,222,0,0,0,0,0,0,0,0,0,0,0
0,0,50,-123,-2233,595,-32,-3,218,0,0,0,0,0,0,0,0,0,0,0
0,0,52,-125,-2228,596,-31,-2,226,0,0,0,0,0,0,0,0,0,0,0
0,0,56,-123,-2235,594,-33,-1,222,0,0,0,0,0,0,0,0,0,0,0
0,0,47,-131,-2233,595,-32,-3,207,0,0,0,0,0,0,0,0,0,0,0
0,0,49,-129,-2239,596,-31,-3,207,0,0,0,0,0,0,0,0,0,0,0
0,0,46,-121,-2233,596,-32,-3,217,0,0,0,0,0,0,0,0,0,0,0
0,0,54,-121,-2234,596,-33,-1,225,0,0,0,0,0,0,0,0,0,0,0
0,0,60,-122,-2243,596,-33,1,224,0,0,0,0,0,0,0,0,0,0,0
0,0,49,-121,-2232,596,-33,-2,221,0,0,0,0,0,0,0,0,0,0,0
0,0,47,-120,-2233,597,-30,-2,223,0,0,0,0,0,0,0,0,0,0,0
0,0,46,-130,-2236,598,-32,0,211,0,0,0,0,0,0,0,0,0,0,0
0,0,55,-124,-2232,596,-31,-1,227,0,0,0,0,0,0,0,0,0,0,0
0,0,56,-124,-2229,596,-32,-3,228,0,0,0,0,0,0,0,0,0,0,0
0,0,47,-123,-2236,596,-32,-1,215,0,0,0,0,0,0,0,0,0,0,0
0,0,44,-119,-2236,597,-33,-3,214,0,0,0,0,0,0,0,0,0,0,0
0,0,43,-123,-2236,596,-31,-3,210,0,0,0,0,0,0,0,0,0,0,0
0,0,44,-130,-2226,595,-33,-2,212,0,0,0,0,0,0,0,0,0,0,0
0,0,53,-121,-2229,596,-33,-1,229,0,0,0,0,0,0,0,0,0,0,0
0,0,51,-120,-2229,595,-34,-2,225,0,0,0,0,0,0,0,0,0,0,0
0,0,52,-119,-2243,595,-32,-1,216,0,0,0,0,0,0,0,0,0,0,0
0,0,49,-124,-2238,597,-31,0,218,0,0,0,0,0,0,0,0,0,0,0
0,0,44,-122,-2236,596,-32,-2,212,0,0,0,0,0,0,0,0,0,0,0
0,0,45,-126,-2229,596,-32,-2,216,0,0,0,0,0,0,0,0,0,0,0
0,0,52,-125,-2237,595,-33,-2,214,0,0,0,0,0,0,0,0,0,0,0
0,0,45,-132,-2231,595,-31,-1,209,0,0,0,0,0,0,0,0,0,0,0
0,0,48,-122,-2239,595,-30,-1,215,0,0,0,0,0,0,0,0,0,0,0
0,0,46,-123,-2220,594,-32,-1,228,0,0,0,0,0,0,0,0,0,0,0
0,0,53,-125,-2231,596,-32,-3,222,0,0,0,0,0,0,0,0,0,0,0
0,0,51,-128,-2230,595,-34,-4,214,0,0,0,0,0,0,0,0,0,0,0
0,0,52,-125,-2231,596,-32,-2,222,0,0,0,0,0,0,0,0,0,0,0
0,0,48,-123,-2222,596,-32,-2,229,0,0,0,0,0,0,0,0,0,0,0
0,0,53,-122,-2236,596,-33,-2,220,0,0,0,0,0,0,0,0,0,0,0
0,0,54,-125,-2232,597,-31,-2,225,0,0,0,0,0,0,0,0,0,0,0
0,0,47,-125,-2222,596,-31,-2,227,0,0,0,0,0,0,0,0,0,0,0
0,0,49,-122,-2242,594,-33,-1,209,0,0,0,0,0,0,0,0,0,0,0
0,0,46,-129,-2243,595,-34,-1,198,0,0,0,0,0,0,0,0,0,0,0
0,0,55,-121,-2246,595,-32,-1,214,0,0,0,0,0,0,0,0,0,0,0
0,0,54,-128,-2234,595,-32,-1,218,0,0,0,0,0,0,0,0,0,0,0
0,0,52,-132,-2244,596,-33,-1,202,0,0,0,0,0,0,0,0,0,0,0
0,0,46,-122,-2237,595,-33,-2,211,0,0,0,0,0,0,0,0,0,0,0
0,0,45,-123,-2225,595,-31,-2,223,0,0,0,0,0,0,0,0,0,0,0
0,0,43,-124,-2227,594,-32,-2,216,0,0,0,0,0,0,0,0,0,0,0
0,0,47,-122,-2236,595,-33,-2,213,0,0,0,0,0,0,0,0,0,0,0
0,0,45,-131,-2232,596,-31,-4,207,0,0,0,0,0,0,0,0,0,0,0
0,0,49,-128,-2235,595,-31,-3,211,0,0,0,0,0,0,0,0,0,0,0
0,0,50,-123,-2237,594,-32,-3,213,0,0,0,0,0,0,0,0,0,0,0
0,0,52,-117,-2228,596,-32,-4,231,0,0,0,0,0,0,0,0,0,0,0
0,0,45,-119,-2225,595,-32,-1,227,0,0,0,0,0,0,0,0,0,0,0
0,0,42,-124,-2231,596,-30,-2,215,0,0,0,0,0,0,0,0,0,0,0
0,0,51,-122,-2233,596,-31,-2,223,0,0,0,0,0,0,0,0,0,0,0
0,0,49,-126,-2234,595,-32,-2,214,0,0,0,0,0,0,0,0,0,0,0
0,0,54,-116,-2229,595,-32,-2,234,0,0,0,0,0,0,0,0,0,0,0
0,0,56,-122,-2235,595,-31,-3,224,0,0,0,0,0,0,0,0,0,0,0
0,0,52,-121,-2229,595,-33,-2,226,0,0,0,0,0,0,0,0,0,0,0
0,0,47,-123,-2240,596,-33,0,212,0,0,0,0,0,0,0,0,0,0,0
0,0,51,-126,-2229,597,-32,-1,224,0,0,0,0,0,0,0,0,0,0,0
0,0,53,-129,-2230,596,-32,-3,219,0,0,0,0,0,0,0,0,0,0,0
0,0,45,-118,-2223,595,-33,-4,226,0,0,0,0,0,0,0,0,0,0,0
0,0,50,-120,-2247,596,-33,-2,208,0,0,0,0,0,0,0,0,0,0,0
0,0,52,-127,-2229,594,-32,-3,219,0,0,0,0,0,0,0,0,0,0,0
0,0,54,-127,-2232,595,-32,-1,221,0,0,0,0,0,0,0,0,0,0,0
0,0,52,-129,-2238,595,-32,-1,211,0,0,0,0,0,0,0,0,0,0,0
0,0,46,-125,-2235,595,-33,-3,209,0,0,0,0,0,0,0,0,0,0,0
0,0,47,-117,-2235,596,-32,0,224,0,0,0,0,0,0,0,0,0,0,0
0,0,58,-127,-2227,594,-32,-2,228,0,0,0,0,0,0,0,0,0,0,0
0,0,62,-127,-2232,596,-32,-3,228,0,0,0,0,0,0,0,0,0,0,0
0,0,50,-119,-2244,597,-32,-2,214,0,0,0,0,0,0,0,0,0,0,0
0,0,52,-121,-2229,596,-31,-2,229,0,0,0,0,0,0,0,0,0,0,0
0,0,43,-123,-2242,595,-31,-3,203,0,0,0,0,0,0,0,0,0,0,0
0,0,42,-127,-2240,595,-30,-3,201,0,0,0,0,0,0,0,0,0,0,0
0,0,62,-127,-2240,595,-32,-2,220,0,0,0,0,0,0,0,0,0,0,0
0,0,53,-129,-2241,596,-32,-3,208,0,0,0,0,0,0,0,0,0,0,0
0,0,47,-125,-2232,596,-34,-1,215,0,0,0,0,0,0,0,0,0,0,0
0,0,42,-130,-2233,594,-32,-2,203,0,0,0,0,0,0,0,0,0,0,0
0,0,50,-121,-2230,595,-32,-2,224,0,0,0,0,0,0,0,0,0,0,0
0,0,53,-121,-2236,595,-31,-3,221,0,0,0,0,0,0,0,0,0,0,0
0,0,51,-128,-2233,595,-32,-3,214,0,0,0,0,0,0,0,0,0,0,0
0,0,41,-123,-2235,596,-32,-3,208,0,0,0,0,0,0,0,0,0,0,0
0,0,51,-124,-2233,594,-33,-2,217,0,0,0,0,0,0,0,0,0,0,0
0,0,43,-122,-2230,595,-32,-3,215,0,0,0,0,0,0,0,0,0,0,0
0,0,52,-129,-2248,597,-33,-3,200,0,0,0,0,0,0,0,0,0,0,0
0,0,51,-121,-2239,596,-32,-3,216,0,0,0,0,0,0,0,0,0,0,0
0,0,44,-125,-2240,597,-33,-3,204,0,0,0,0,0,0,0,0,0,0,0
0,0,47,-128,-2233,596,-31,-1,214,0,0,0,0,0,0,0,0,0,0,0
0,0,42,-125,-2238,596,-32,-3,204,0,0,0,0,0,0,0,0,0,0,0
0,0,50,-125,-2235,596,-31,-2,217,0,0,0,0,0,0,0,0,0,0,0
0,0,45,-129,-2229,595,-32,-1,213,0,0,0,0,0,0,0,0,0,0,0
0,0,50,-128,-2234,595,-31,-1,215,0,0,0,0,0,0,0,0,0,0,0
0,0,58,-118,-2227,595,-31,-1,240,0,0,0,0,0,0,0,0,0,0,0
0,0,52,-118,-2221,594,-33,0,239,0,0,0,0,0,0,0,0,0,0,0
0,0,49,-125,-2230,595,-33,-2,218,0,0,0,0,0,0,0,0,0,0,0
0,0,53,-119,-2234,597,-32,-3,226,0,0,0,0,0,0,0,0,0,0,0
0,0,47,-125,-2230,596,-33,-2,217,0,0,0,0,0,0,0,0,0,0,0
0,0,51,-125,-2227,595,-32,-3,223,0,0,0,0,0,0,0,0,0,0,0
0,0,52,-122,-2232,596,-32,-2,224,0,0,0,0,0,0,0,0,0,0,0
0,0,50,-118,-2241,596,-32,-4,215,0,0,0,0,0,0,0,0,0,0,0
0,0,58,-120,-2228,596,-30,-3,237,0,0,0,0,0,0,0,0,0,0,0
0,0,58,-127,-2242,594,-31,-2,214,0,0,0,0,0,0,0,0,0,0,0
0,0,45,-121,-2237,595,-32,-3,211,0,0,0,0,0,0,0,0,0,0,0
0,0,45,-126,-2230,596,-31,-3,215,0,0,0,0,0,0,0,0,0,0,0
0,0,49,-124,-2227,595,-33,-2,222,0,0,0,0,0,0,0,0,0,0,0
0,0,52,-127,-2235,595,-31,-2,216,0,0,0,0,0,0,0,0,0,0,0
0,0,50,-121,-2239,596,-32,-2,216,0,0,0,0,0,0,0,0,0,0,0
0,0,54,-118,-2234,597,-32,-3,228,0,0,0,0,0,0,0,0,0,0,0
0,0,51,-118,-2236,597,-31,-2,225,0,0,0,0,0,0,0,0,0,0,0
0,0,52,-117,-2238,596,-31,-2,224,0,0,0,0,0,0,0,0,0,0,0
0,0,49,-131,-2234,595,-34,-2,207,0,0,0,0,0,0,0,0,0,0,0
0,0,45,-121,-2236,594,-33,-1,212,0,0,0,0,0,0,0,0,0,0,0
0,0,57,-120,-2228,595,-33,-3,232,0,0,0,0,0,0,0,0,0,0,0
0,0,61,-125,-2237,595,-33,-2,223,0,0,0,0,0,0,0,0,0,0,0
0,0,55,-119,-2239,596,-33,-2,222,0,0,0,0,0,0,0,0,0,0,0
0,0,55,-127,-2237,595,-31,-1,218,0,0,0,0,0,0,0,0,0,0,0
0,0,55,-124,-2239,595,-33,-3,215,0,0,0,0,0,0,0,0,0,0,0
0,0,49,-126,-2240,596,-32,-3,208,0,0,0,0,0,0,0,0,0,0,0
0,0,42,-122,-2238,596,-31,-3,208,0,0,0,0,0,0,0,0,0,0,0
0,0,53,-128,-2228,596,-33,-2,222,0,0,0,0,0,0,0,0,0,0,0
0,0,49,-120,-2235,596,-32,-3,219,0,0,0,0,0,0,0,0,0,0,0
0,0,49,-119,-2237,595,-32,-2,218,0,0,0,0,0,0,0,0,0,0,0
0,0,50,-126,-2242,596,-32,-2,208,0,0,0,0,0,0,0,0,0,0,0
0,0,52,-121,-2233,594,-32,-2,222,0,0,0,0,0,0,0,0,0,0,0
0,0,50,-124,-2224,595,-33,-2,226,0,0,0,0,0,0,0,0,0,0,0
0,0,48,-128,-2234,596,-34,-2,210,0,0,0,0,0,0,0,0,0,0,0
0,0,51,-124,-2234,596,-32,-2,219,0,0,0,0,0,0,0,0,0,0,0
0,0,45,-121,-2242,596,-32,-2,208,0,0,0,0,0,0,0,0,0,0,0
0,0,51,-117,-2234,595,-32,-3,224,0,0,0,0,0,0,0,0,0,0,0
0,0,48,-122,-2236,596,-33,-3,214,0,0,0,0,0,0,0,0,0,0,0
0,0,49,-123,-2233,595,-33,-3,216,0,0,0,0,0,0,0,0,0,0,0
0,0,51,-117,-2236,595,-33,-2,222,0,0,0,0,0,0,0,0,0,0,0
0,0,55,-122,-2239,594,-32,-2,218,0,0,0,0,0,0,0,0,0,0,0
0,0,48,-124,-2239,596,-32,-2,211,0,0,0,0,0,0,0,0,0,0,0
0,0,49,-118,-2236,596,-33,-1,221,0,0,0,0,0,0,0,0,0,0,0
0,0,49,-125,-2228,595,-31,-2,222,0,0,0,0,0,0,0,0,0,0,0
0,0,51,-123,-2243,596,-31,-2,212,0,0,0,0,0,0,0,0,0,0,0
0,0,55,-129,-2241,595,-32,-3,209,0,0,0,0,0,0,0,0,0,0,0
0,0,53,-120,-2231,596,-32,-2,228,0,0,0,0,0,0,0,0,0,0,0
0,0,66,-126,-2223,596,-33,-1,243,0,0,0,0,0,0,0,0,0,0,0
0,0,57,-127,-2219,594,-31,-2,236,0,0,0,0,0,0,0,0,0,0,0
0,0,50,-121,-2237,595,-33,-3,215,0,0,0,0,0,0,0,0,0,0,0
0,0,52,-125,-2230,596,-32,-4,221,0,0,0,0,0,0,0,0,0,0,0
0,0,48,-123,-2239,596,-32,-3,211,0,0,0,0,0,0,0,0,0,0,0
0,0,46,-125,-2232,596,-33,-2,214,0,0,0,0,0,0,0,0,0,0,0
0,0,50,-120,-2237,596,-32,-1,220,0,0,0,0,0,0,0,0,0,0,0
0,0,54,-120,-2229,596,-32,-2,231,0,0,0,0,0,0,0,0,0,0,0
0,0,53,-115,-2236,594,-32,-1,227,0,0,0,0,0,0,0,0,0,0,0
0,0,48,-118,-2235,595,-31,-2,221,0,0,0,0,0,0,0,0,0,0,0
0,0,47,-122,-2250,595,-32,-2,200,0,0,0,0,0,0,0,0,0,0,0
0,0,48,-122,-2242,596,-32,-2,210,0,0,0,0,0,0,0,0,0,0,0
0,0,48,-118,-2242,597,-32,-2,215,0,0,0,0,0,0,0,0,0,0,0
0,0,49,-122,-2228,596,-33,-1,225,0,0,0,0,0,0,0,0,0,0,0
0,0,50,-122,-2236,595,-31,-2,218,0,0,0,0,0,0,0,0,0,0,0
0,0,51,-125,-2227,595,-34,-1,223,0,0,0,0,0,0,0,0,0,0,0
0,0,43,-119,-2220,594,-33,-2,227,0,0,0,0,0,0,0,0,0,0,0
0,0,46,-124,-2235,596,-32,-1,214,0,0,0,0,0,0,0,0,0,0,0
0,0,45,-125,-2228,594,-32,-2,216,0,0,0,0,0,0,0,0,0,0,0
0,0,47,-123,-2238,595,-32,-2,211,0,0,0,0,0,0,0,0,0,0,0
0,0,52,-122,-2234,597,-33,-2,222,0,0,0,0,0,0,0,0,0,0,0
0,0,51,-118,-2249,596,-32,-2,210,0,0,0,0,0,0,0,0,0,0,0
0,0,51,-129,-2234,596,-32,-3,213,0,0,0,0,0,0,0,0,0,0,0
0,0,51,-122,-2241,596,-31,-1,216,0,0,0,0,0,0,0,0,0,0,0
0,0,50,-123,-2238,596,-33,-2,214,0,0,0,0,0,0,0,0,0,0,0
0,0,51,-122,-2242,595,-30,-2,214,0,0,0,0,0,0,0,0,0,0,0
0,0,52,-124,-2237,595,-32,-2,216,0,0,0,0,0,0,0,0,0,0,0
0,0,43,-117,-2225,595,-32,-2,226,0,0,0,0,0,0,0,0,0,0,0
0,0,50,-124,-2239,596,-32,-2,213,0,0,0,0,0,0,0,0,0,0,0
0,0,49,-125,-2244,596,-33,-1,206,0,0,0,0,0,0,0,0,0,0,0
0,0,44,-121,-2232,596,-33,-1,217,0,0,0,0,0,0,0,0,0,0,0
0,0,52,-130,-2228,594,-32,-1,219,0,0,0,0,0,0,0,0,0,0,0
0,0,53,-123,-2238,595,-31,-4,216,0,0,0,0,0,0,0,0,0,0,0
0,0,45,-128,-2238,596,-32,-2,205,0,0,0,0,0,0,0,0,0,0,0
0,0,45,-127,-2234,596,-32,-3,209,0,0,0,0,0,0,0,0,0,0,0
0,0,56,-127,-2243,595,-32,-1,212,0,0,0,0,0,0,0,0,0,0,0
0,0,56,-124,-2239,596,-32,-2,219,0,0,0,0,0,0,0,0,0,0,0
0,0,47,-117,-2244,595,-31,-2,212,0,0,0,0,0,0,0,0,0,0,0
0,0,46,-125,-2236,595,-31,-2,211,0,0,0,0,0,0,0,0,0,0,0
0,0,54,-116,-2238,595,-32,-2,225,0,0,0,0,0,0,0,0,0,0,0
0,0,44,-119,-2232,595,-32,-2,218,0,0,0,0,0,0,0,0,0,0,0
0,0,54,-119,-2226,595,-30,-2,236,0,0,0,0,0,0,0,0,0,0,0
0,0,50,-121,-2228,594,-32,-1,226,0,0,0,0,0,0,0,0,0,0,0
0,0,49,-126,-2228,597,-32,-2,222,0,0,0,0,0,0,0,0,0,0,0
0,0,48,-119,-2237,596,-32,-2,218,0,0,0,0,0,0,0,0,0,0,0
0,0,46,-121,-2243,596,-32,-2,208,0,0,0,0,0,0,0,0,0,0,0
0,0,48,-118,-2235,597,-32,-1,223,0,0,0,0,0,0,0,0,0,0,0
0,0,48,-121,-2244,596,-31,-2,210,0,0,0,0,0,0,0,0,0,0,0
0,0,47,-125,-2229,595,-32,-2,218,0,0,0,0,0,0,0,0,0,0,0
0,0,52,-119,-2235,595,-32,-2,223,0,0,0,0,0,0,0,0,0,0,0
0,0,54,-124,-2232,597,-32,-2,225,0,0,0,0,0,0,0,0,0,0,0
0,0,51,-125,-2231,596,-32,-3,220,0,0,0,0,0,0,0,0,0,0,0
0,0,50,-118,-2243,595,-33,-2,213,0,0,0,0,0,0,0,0,0,0,0
0,0,52,-122,-2232,596,-33,-3,222,0,0,0,0,0,0,0,0,0,0,0
0,0,52,-129,-2239,595,-33,0,211,0,0,0,0,0,0,0,0,0,0,0
0,0,48,-123,-2228,596,-32,-1,224,0,0,0,0,0,0,0,0,0,0,0
0,0,47,-121,-2232,597,-31,-2,222,0,0,0,0,0,0,0,0,0,0,0
0,0,44,-126,-2236,595,-31,-3,207,0,0,0,0,0,0,0,0,0,0,0
0,0,48,-128,-2234,595,-31,-2,212,0,0,0,0,0,0,0,0,0,0,0
0,0,48,-126,-2239,595,-30,-1,211,0,0,0,0,0,0,0,0,0,0,0
0,0,54,-128,-2235,595,-32,-4,214,0,0,0,0,0,0,0,0,0,0,0
0,0,49,-130,-2224,595,-32,-2,220,0,0,0,0,0,0,0,0,0,0,0
0,0,46,-126,-2232,598,-32,-4,214,0,0,0,0,0,0,0,0,0,0,0
0,0,46,-127,-2235,595,-33,0,211,0,0,0,0,0,0,0,0,0,0,0
0,0,47,-123,-2238,595,-32,-1,212,0,0,0,0,0,0,0,0,0,0,0
0,0,53,-127,-2232,595,-32,-1,220,0,0,0,0,0,0,0,0,0,0,0
0,0,55,-118,-2228,595,-32,-3,233,0,0,0,0,0,0,0,0,0,0,0
0,0,43,-120,-2229,595,-33,-3,217,0,0,0,0,0,0,0,0,0,0,0
0,0,51,-126,-2242,595,-31,-3,208,0,0,0,0,0,0,0,0,0,0,0
0,0,47,-127,-2235,596,-32,-2,211,0,0,0,0,0,0,0,0,0,0,0
0,0,51,-125,-2223,595,-30,-2,230,0,0,0,0,0,0,0,0,0,0,0
0,0,47,-128,-2229,596,-31,-3,216,0,0,0,0,0,0,0,0,0,0,0
0,0,46,-128,-2232,597,-32,-2,213,0,0,0,0,0,0,0,0,0,0,0
0,0,48,-129,-2233,596,-31,-2,213,0,0,0,0,0,0,0,0,0,0,0
0,0,43,-120,-2232,596,-31,-3,217,0,0,0,0,0,0,0,0,0,0,0
0,0,48,-125,-2225,596,-32,-1,225,0,0,0,0,0,0,0,0,0,0,0
0,0,41,-129,-2225,594,-33,-2,210,0,0,0,0,0,0,0,0,0,0,0
0,0,45,-126,-2227,597,-31,-2,220,0,0,0,0,0,0,0,0,0,0,0
0,0,57,-125,-2248,594,-33,0,210,0,0,0,0,0,0,0,0,0,0,0
0,0,54,-115,-2223,596,-32,-2,242,0,0,0,0,0,0,0,0,0,0,0
0,0,58,-125,-2232,595,-32,-1,227,0,0,0,0,0,0,0,0,0,0,0
0,0,54,-114,-2236,595,-32,-2,229,0,0,0,0,0,0,0,0,0,0,0
0,0,56,-126,-2231,596,-33,-2,224,0,0,0,0,0,0,0,0,0,0,0
0,0,59,-121,-2236,595,-31,-3,227,0,0,0,0,0,0,0,0,0,0,0
0,0,45,-127,-2234,594,-31,-3,208,0,0,0,0,0,0,0,0,0,0,0
0,0,52,-131,-2229,597,-33,-1,219,0,0,0,0,0,0,0,0,0,0,0
0,0,54,-133,-2235,597,-33,-2,212,0,0,0,0,0,0,0,0,0,0,0
0,0,52,-122,-2239,596,-32,-1,218,0,0,0,0,0,0,0,0,0,0,0
0,0,50,-127,-2229,596,-31,-3,220,0,0,0,0,0,0,0,0,0,0,0
0,0,50,-118,-2245,595,-32,-1,213,0,0,0,0,0,0,0,0,0,0,0
0,0,50,-125,-2238,595,-33,-1,212,0,0,0,0,0,0,0,0,0,0,0
0,0,50,-127,-2230,597,-33,-2,219,0,0,0,0,0,0,0,0,0,0,0
0,0,56,-123,-2222,596,-32,-4,235,0,0,0,0,0,0,0,0,0,0,0
0,0,49,-128,-2217,596,-32,-3,229,0,0,0,0,0,0,0,0,0,0,0
0,0,48,-127,-2238,596,-33,-2,208,0,0,0,0,0,0,0,0,0,0,0
0,0,55,-128,-2234,595,-32,-1,219,0,0,0,0,0,0,0,0,0,0,0
0,0,51,-122,-2234,596,-32,-3,220,0,0,0,0,0,0,0,0,0,0,0
0,0,45,-124,-2233,595,-32,-1,214,0,0,0,0,0,0,0,0,0,0,0
0,0,54,-125,-2235,595,-31,-1,221,0,0,0,0,0,0,0,0,0,0,0
0,0,52,-123,-2243,594,-32,-3,209,0,0,0,0,0,0,0,0,0,0,0
0,0,52,-117,-2227,595,-31,0,237,0,0,0,0,0,0,0,0,0,0,0
0,0,52,-124,-2230,596,-32,-2,224,0,0,0,0,0,0,0,0,0,0,0
0,0,53,-132,-2236,597,-32,-3,211,0,0,0,0,0,0,0,0,0,0,0
0,0,53,-128,-2240,595,-32,-2,210,0,0,0,0,0,0,0,0,0,0,0
0,0,48,-121,-2231,596,-32,-3,221,0,0,0,0,0,0,0,0,0,0,0
0,0,53,-123,-2232,595,-31,-2,224,0,0,0,0,0,0,0,0,0,0,0
0,0,47,-119,-2237,597,-32,-3,217,0,0,0,0,0,0,0,0,0,0,0
0,0,41,-128,-2241,595,-32,-1,198,0,0,0,0,0,0,0,0,0,0,0
0,0,47,-123,-2228,595,-34,0,222,0,0,0,0,0,0,0,0,0,0,0
0,0,51,-125,-2242,596,-32,0,213,0,0,0,0,0,0,0,0,0,0,0
0,0,49,-124,-2237,595,-34,-3,210,0,0,0,0,0,0,0,0,0,0,0
0,0,53,-132,-2232,595,-31,-1,216,0,0,0,0,0,0,0,0,0,0,0
0,0,46,-123,-2232,596,-31,-3,217,0,0,0,0,0,0,0,0,0,0,0
0,0,47,-128,-2231,597,-31,-3,215,0,0,0,0,0,0,0,0,0,0,0
0,0,49,-124,-2235,595,-33,-1,215,0,0,0,0,0,0,0,0,0,0,0
0,0,51,-129,-2237,597,-33,-2,211,0,0,0,0,0,0,0,0,0,0,0
0,0,49,-118,-2226,595,-31,-3,230,0,0,0,0,0,0,0,0,0,0,0
0,0,53,-126,-2233,596,-31,-2,221,0,0,0,0,0,0,0,0,0,0,0
0,0,53,-123,-2240,594,-31,-3,214,0,0,0,0,0,0,0,0,0,0,0
0,0,50,-124,-2221,596,-32,-2,231,0,0,0,0,0,0,0,0,0,0,0
0,0,46,-130,-2231,595,-32,-3,209,0,0,0,0,0,0,0,0,0,0,0
0,0,42,-119,-2235,596,-32,-3,213,0,0,0,0,0,0,0,0,0,0,0
0,0,45,-123,-2225,596,-32,-2,223,0,0,0,0,0,0,0,0,0,0,0
0,0,52,-129,-2236,596,-32,-2,213,0,0,0,0,0,0,0,0,0,0,0
0,0,49,-128,-2234,596,-32,-1,214,0,0,0,0,0,0,0,0,0,0,0
0,0,47,-128,-2241,595,-32,-3,202,0,0,0,0,0,0,0,0,0,0,0
0,0,50,-126,-2246,596,-32,-1,205,0,0,0,0,0,0,0,0,0,0,0
0,0,50,-125,-2235,596,-31,-1,218,0,0,0,0,0,0,0,0,0,0,0
0,0,53,-123,-2239,596,-30,-2,219,0,0,0,0,0,0,0,0,0,0,0
0,0,46,-124,-2224,597,-32,-1,226,0,0,0,0,0,0,0,0,0,0,0
0,0,48,-121,-2221,596,-33,-1,232,0,0,0,0,0,0,0,0,0,0,0
0,0,45,-125,-2224,595,-33,-3,219,0,0,0,0,0,0,0,0,0,0,0
0,0,52,-125,-2235,595,-32,-2,217,0,0,0,0,0,0,0,0,0,0,0
0,0,51,-132,-2230,596,-31,-2,216,0,0,0,0,0,0,0,0,0,0,0
0,0,50,-121,-2235,596,-31,-3,220,0,0,0,0,0,0,0,0,0,0,0
0,0,53,-124,-2233,595,-32,-2,221,0,0,0,0,0,0,0,0,0,0,0
0,0,48,-120,-2237,595,-34,-3,213,0,0,0,0,0,0,0,0,0,0,0
0,0,48,-129,-2240,595,-33,0,206,0,0,0,0,0,0,0,0,0,0,0
0,0,50,-130,-2235,595,-33,-1,210,0,0,0,0,0,0,0,0,0,0,0
0,0,43,-125,-2234,595,-31,-2,210,0,0,0,0,0,0,0,0,0,0,0
0,0,46,-122,-2234,595,-32,-3,214,0,0,0,0,0,0,0,0,0,0,0
0,0,54,-124,-2234,595,-32,-2,221,0,0,0,0,0,0,0,0,0,0,0
0,0,50,-122,-2228,595,-32,-1,226,0,0,0,0,0,0,0,0,0,0,0
0,0,45,-123,-2230,594,-33,-2,215,0,0,0,0,0,0,0,0,0,0,0
0,0,49,-129,-2237,594,-32,-2,207,0,0,0,0,0,0,0,0,0,0,0
0,0,53,-120,-2240,595,-32,-2,218,0,0,0,0,0,0,0,0,0,0,0
0,0,54,-119,-2227,596,-32,-3,233,0,0,0,0,0,0,0,0,0,0,0
0,0,50,-123,-2244,595,-31,-1,210,0,0,0,0,0,0,0,0,0,0,0
0,0,54,-121,-2228,596,-31,-1,233,0,0,0,0,0,0,0,0,0,0,0
0,0,48,-120,-2230,596,-31,-2,225,0,0,0,0,0,0,0,0,0,0,0
0,0,52,-118,-2225,594,-31,-2,234,0,0,0,0,0,0,0,0,0,0,0
0,0,53,-123,-2226,594,-33,-3,226,0,0,0,0,0,0,0,0,0,0,0
0,0,53,-122,-2239,596,-33,-1,218,0,0,0,0,0,0,0,0,0,0,0
0,0,50,-124,-2235,595,-31,-1,218,0,0,0,0,0,0,0,0,0,0,0
0,0,48,-122,-2239,597,-33,-2,213,0,0,0,0,0,0,0,0,0,0,0
0,0,57,-130,-2237,596,-33,-3,214,0,0,0,0,0,0,0,0,0,0,0
0,0,56,-128,-2242,596,-32,-2,212,0,0,0,0,0,0,0,0,0,0,0
0,0,54,-125,-2233,595,-32,-3,220,0,0,0,0,0,0,0,0,0,0,0
0,0,45,-130,-2235,596,-32,-3,205,0,0,0,0,0,0,0,0,0,0,0
0,0,42,-127,-2238,596,-32,-3,202,0,0,0,0,0,0,0,0,0,0,0
0,0,41,-121,-2241,597,-31,-3,206,0,0,0,0,0,0,0,0,0,0,0
0,0,54,-120,-2243,596,-32,-2,217,0,0,0,0,0,0,0,0,0,0,0
0,0,49,-119,-2235,595,-32,-1,221,0,0,0,0,0,0,0,0,0,0,0
0,0,49,-121,-2236,595,-31,-2,218,0,0,0,0,0,0,0,0,0,0,0
0,0,56,-125,-2237,596,-32,-2,220,0,0,0,0,0,0,0,0,0,0,0
