1,2,3,4,5,6,7,8,9,10,11,12,13,14,15,16,17,18,19,20
UserData_20,Frame ID£º0x01,FC_ACC_X,FC_ACC_Y,FC_ACC_Z,FC_GYR_X,FC_GYR_Y,FC_GYR_Z,FC_STA_Shock,Frame ID£º0x02,FC_MAG_X,FC_MAG_Y,FC_MAG_Z,FC_ALT_BAR,FC_SenserTMP,FC_STA_BAR,FC_STA_MAG,Frame ID£º0x03,FC_ATT_ROL,FC_ATT_PIT
0,0,43,-32,1917,596,-31,5,127,0,0,0,0,0,0,0,0,0,0,0
0,0,46,-36,1915,596,-33,5,122,0,0,0,0,0,0,0,0,0,0,0
0,0,47,-37,1925,595,-33,4,130,0,0,0,0,0,0,0,0,0,0,0
0,0,53,-37,1920,595,-33,4,131,0,0,0,0,0,0,0,0,0,0,0
0,0,45,-35,1916,595,-32,4,122,0,0,0,0,0,0,0,0,0,0,0
0,0,45,-39,1911,595,-31,3,113,0,0,0,0,0,0,0,0,0,0,0
0,0,39,-38,1919,596,-33,3,115,0,0,0,0,0,0,0,0,0,0,0
0,0,53,-35,1924,596,-31,4,140,0,0,0,0,0,0,0,0,0,0,0
0,0,50,-44,1920,597,-31,4,125,0,0,0,0,0,0,0,0,0,0,0
0,0,51,-33,1919,595,-32,6,135,0,0,0,0,0,0,0,0,0,0,0
0,0,45,-42,1924,596,-33,5,124,0,0,0,0,0,0,0,0,0,0,0
0,0,45,-44,1916,596,-31,5,116,0,0,0,0,0,0,0,0,0,0,0
0,0,39,-39,1913,594,-31,4,109,0,0,0,0,0,0,0,0,0,0,0
0,0,38,-46,1924,595,-32,4,112,0,0,0,0,0,0,0,0,0,0,0
0,0,44,-40,1921,596,-33,5,122,0,0,0,0,0,0,0,0,0,0,0
0,0,49,-40,1917,594,-31,3,121,0,0,0,0,0,0,0,0,0,0,0
0,0,43,-38,1922,596,-33,3,122,0,0,0,0,0,0,0,0,0,0,0
0,0,38,-42,1917,596,-32,5,111,0,0,0,0,0,0,0,0,0,0,0
0,0,42,-43,1916,596,-34,6,112,0,0,0,0,0,0,0,0,0,0,0
0,0,46,-46,1929,596,-33,6,127,0,0,0,0,0,0,0,0,0,0,0
0,0,47,-43,1912,597,-31,4,115,0,0,0,0,0,0,0,0,0,0,0
0,0,40,-35,1924,596,-30,4,128,0,0,0,0,0,0,0,0,0,0,0
0,0,47,-42,1928,597,-32,4,131,0,0,0,0,0,0,0,0,0,0,0
0,0,57,-39,1918,595,-31,5,134,0,0,0,0,0,0,0,0,0,0,0
0,0,47,-32,1920,596,-32,6,134,0,0,0,0,0,0,0,0,0,0,0
0,0,47,-33,1924,598,-31,4,138,0,0,0,0,0,0,0,0,0,0,0
0,0,46,-38,1919,597,-33,5,125,0,0,0,0,0,0,0,0,0,0,0
0,0,43,-44,1919,598,-33,4,116,0,0,0,0,0,0,0,0,0,0,0
0,0,48,-41,1920,596,-32,4,124,0,0,0,0,0,0,0,0,0,0,0
0,0,45,-38,1910,595,-34,5,112,0,0,0,0,0,0,0,0,0,0,0
0,0,42,-40,1919,596,-32,4,118,0,0,0,0,0,0,0,0,0,0,0
0,0,44,-37,1916,596,-33,5,120,0,0,0,0,0,0,0,0,0,0,0
0,0,41,-32,1917,596,-32,4,123,0,0,0,0,0,0,0,0,0,0,0
0,0,45,-33,1929,596,-31,4,139,0,0,0,0,0,0,0,0,0,0,0
0,0,45,-35,1922,596,-32,4,129,0,0,0,0,0,0,0,0,0,0,0
0,0,46,-37,1922,593,-32,4,125,0,0,0,0,0,0,0,0,0,0,0
0,0,37,-39,1923,595,-33,4,116,0,0,0,0,0,0,0,0,0,0,0
0,0,51,-38,1923,595,-31,5,134,0,0,0,0,0,0,0,0,0,0,0
0,0,45,-28,1927,596,-31,6,144,0,0,0,0,0,0,0,0,0,0,0
0,0,39,-31,1913,596,-31,6,121,0,0,0,0,0,0,0,0,0,0,0
0,0,44,-35,1911,595,-32,4,116,0,0,0,0,0,0,0,0,0,0,0
0,0,52,-33,1917,595,-31,5,134,0,0,0,0,0,0,0,0,0,0,0
0,0,47,-38,1924,597,-31,5,133,0,0,0,0,0,0,0,0,0,0,0
0,0,38,-35,1916,596,-30,3,117,0,0,0,0,0,0,0,0,0,0,0
0,0,46,-42,1925,595,-33,3,123,0,0,0,0,0,0,0,0,0,0,0
0,0,45,-44,1921,596,-32,6,121,0,0,0,0,0,0,0,0,0,0,0
0,0,43,-30,1929,596,-32,5,140,0,0,0,0,0,0,0,0,0,0,0
0,0,50,-34,1925,595,-31,6,140,0,0,0,0,0,0,0,0,0,0,0
0,0,48,-32,1921,596,-32,4,134,0,0,0,0,0,0,0,0,0,0,0
0,0,51,-41,1918,597,-33,5,126,0,0,0,0,0,0,0,0,0,0,0
0,0,54,-36,1921,597,-33,3,135,0,0,0,0,0,0,0,0,0,0,0
0,0,45,-41,1918,595,-33,4,117,0,0,0,0,0,0,0,0,0,0,0
0,0,48,-41,1926,593,-32,4,127,0,0,0,0,0,0,0,0,0,0,0
0,0,48,-32,1923,594,-33,4,133,0,0,0,0,0,0,0,0,0,0,0
0,0,55,-30,1922,595,-30,4,145,0,0,0,0,0,0,0,0,0,0,0
0,0,44,-38,1915,596,-32,4,118,0,0,0,0,0,0,0,0,0,0,0
0,0,49,-33,1925,595,-31,3,137,0,0,0,0,0,0,0,0,0,0,0
0,0,53,-42,1907,598,-31,6,120,0,0,0,0,0,0,0,0,0,0,0
0,0,51,-33,1912,597,-31,4,129,0,0,0,0,0,0,0,0,0,0,0
0,0,50,-36,1927,596,-31,4,139,0,0,0,0,0,0,0,0,0,0,0
0,0,43,-32,1918,596,-33,3,124,0,0,0,0,0,0,0,0,0,0,0
0,0,48,-34,1925,594,-32,4,134,0,0,0,0,0,0,0,0,0,0,0
0,0,43,-32,1930,597,-33,5,139,0,0,0,0,0,0,0,0,0,0,0
0,0,52,-38,1930,596,-31,3,141,0,0,0,0,0,0,0,0,0,0,0
0,0,50,-33,1925,597,-32,5,141,0,0,0,0,0,0,0,0,0,0,0
0,0,40,-36,1922,595,-32,3,121,0,0,0,0,0,0,0,0,0,0,0
0,0,45,-36,1924,597,-32,4,131,0,0,0,0,0,0,0,0,0,0,0
0,0,49,-36,1923,596,-32,6,135,0,0,0,0,0,0,0,0,0,0,0
0,0,45,-44,1908,596,-32,6,108,0,0,0,0,0,0,0,0,0,0,0
0,0,41,-35,1922,596,-33,4,124,0,0,0,0,0,0,0,0,0,0,0
0,0,45,-35,1925,595,-32,5,132,0,0,0,0,0,0,0,0,0,0,0
0,0,40,-38,1916,596,-33,3,113,0,0,0,0,0,0,0,0,0,0,0
0,0,46,-32,1919,596,-33,6,131,0,0,0,0,0,0,0,0,0,0,0
0,0,47,-35,1929,597,-32,5,140,0,0,0,0,0,0,0,0,0,0,0
0,0,45,-37,1934,596,-32,6,141,0,0,0,0,0,0,0,0,0,0,0
0,0,44,-39,1921,595,-32,4,122,0,0,0,0,0,0,0,0,0,0,0
0,0,47,-38,1909,597,-33,6,117,0,0,0,0,0,0,0,0,0,0,0
0,0,49,-35,1922,596,-32,3,132,0,0,0,0,0,0,0,0,0,0,0
0,0,40,-41,1918,596,-33,4,113,0,0,0,0,0,0,0,0,0,0,0
0,0,47,-37,1922,597,-31,2,129,0,0,0,0,0,0,0,0,0,0,0
0,0,41,-25,1910,596,-31,5,125,0,0,0,0,0,0,0,0,0,0,0
0,0,43,-36,1912,597,-32,5,118,0,0,0,0,0,0,0,0,0,0,0
0,0,39,-31,1919,595,-33,6,124,0,0,0,0,0,0,0,0,0,0,0
0,0,43,-42,1919,596,-32,5,118,0,0,0,0,0,0,0,0,0,0,0
0,0,49,-35,1921,596,-33,3,130,0,0,0,0,0,0,0,0,0,0,0
0,0,41,-38,1925,596,-32,3,124,0,0,0,0,0,0,0,0,0,0,0
0,0,39,-33,1921,598,-33,4,125,0,0,0,0,0,0,0,0,0,0,0
0,0,47,-37,1916,597,-32,5,125,0,0,0,0,0,0,0,0,0,0,0
0,0,47,-33,1912,597,-32,5,125,0,0,0,0,0,0,0,0,0,0,0
0,0,45,-31,1924,598,-32,4,137,0,0,0,0,0,0,0,0,0,0,0
0,0,37,-40,1926,595,-32,6,121,0,0,0,0,0,0,0,0,0,0,0
0,0,40,-39,1927,596,-32,4,125,0,0,0,0,0,0,0,0,0,0,0
0,0,44,-34,1929,597,-31,4,138,0,0,0,0,0,0,0,0,0,0,0
0,0,46,-38,1922,596,-31,4,128,0,0,0,0,0,0,0,0,0,0,0
0,0,51,-33,1914,595,-31,4,129,0,0,0,0,0,0,0,0,0,0,0
0,0,53,-37,1922,595,-30,5,137,0,0,0,0,0,0,0,0,0,0,0
0,0,53,-38,1916,596,-32,4,128,0,0,0,0,0,0,0,0,0,0,0
0,0,45,-33,1918,597,-33,6,129,0,0,0,0,0,0,0,0,0,0,0
0,0,49,-40,1914,598,-33,4,121,0,0,0,0,0,0,0,0,0,0,0
0,0,50,-29,1920,596,-31,3,138,0,0,0,0,0,0,0,0,0,0,0
0,0,42,-39,1922,597,-32,4,123,0,0,0,0,0,0,0,0,0,0,0
0,0,41,-39,1926,594,-33,4,122,0,0,0,0,0,0,0,0,0,0,0
0,0,48,-39,1918,597,-32,4,125,0,0,0,0,0,0,0,0,0,0,0
0,0,48,-34,1924,598,-32,5,138,0,0,0,0,0,0,0,0,0,0,0
0,0,54,-30,1930,597,-32,4,152,0,0,0,0,0,0,0,0,0,0,0
0,0,44,-30,1927,596,-32,5,139,0,0,0,0,0,0,0,0,0,0,0
0,0,44,-33,1921,597,-32,5,131,0,0,0,0,0,0,0,0,0,0,0
0,0,46,-38,1922,597,-31,5,130,0,0,0,0,0,0,0,0,0,0,0
0,0,49,-34,1916,597,-31,7,133,0,0,0,0,0,0,0,0,0,0,0
0,0,45,-36,1917,596,-32,6,125,0,0,0,0,0,0,0,0,0,0,0
0,0,48,-36,1909,596,-31,4,119,0,0,0,0,0,0,0,0,0,0,0
0,0,45,-39,1921,596,-32,3,123,0,0,0,0,0,0,0,0,0,0,0
0,0,47,-35,1912,595,-31,3,120,0,0,0,0,0,0,0,0,0,0,0
0,0,42,-42,1919,594,-32,3,113,0,0,0,0,0,0,0,0,0,0,0
0,0,43,-33,1921,598,-32,4,130,0,0,0,0,0,0,0,0,0,0,0
0,0,49,-33,1917,595,-31,4,130,0,0,0,0,0,0,0,0,0,0,0
0,0,46,-34,1923,593,-32,4,129,0,0,0,0,0,0,0,0,0,0,0
0,0,44,-29,1912,594,-33,4,121,0,0,0,0,0,0,0,0,0,0,0
0,0,44,-36,1917,595,-33,5,121,0,0,0,0,0,0,0,0,0,0,0
0,0,47,-28,1918,595,-33,4,132,0,0,0,0,0,0,0,0,0,0,0
0,0,43,-30,1911,595,-32,5,121,0,0,0,0,0,0,0,0,0,0,0
0,0,47,-38,1913,595,-31,5,120,0,0,0,0,0,0,0,0,0,0,0
0,0,41,-35,1925,597,-32,4,129,0,0,0,0,0,0,0,0,0,0,0
0,0,45,-31,1929,596,-33,5,140,0,0,0,0,0,0,0,0,0,0,0
0,0,49,-38,1930,598,-31,4,141,0,0,0,0,0,0,0,0,0,0,0
0,0,43,-33,1928,597,-33,4,135,0,0,0,0,0,0,0,0,0,0,0
0,0,43,-38,1919,595,-32,5,121,0,0,0,0,0,0,0,0,0,0,0
0,0,44,-31,1927,596,-32,5,138,0,0,0,0,0,0,0,0,0,0,0
0,0,48,-42,1916,596,-32,6,121,0,0,0,0,0,0,0,0,0,0,0
0,0,47,-38,1915,597,-31,4,123,0,0,0,0,0,0,0,0,0,0,0
0,0,45,-32,1928,596,-33,5,138,0,0,0,0,0,0,0,0,0,0,0
0,0,50,-37,1920,597,-32,4,131,0,0,0,0,0,0,0,0,0,0,0
0,0,50,-40,1916,598,-34,3,122,0,0,0,0,0,0,0,0,0,0,0
0,0,36,-36,1918,597,-32,4,116,0,0,0,0,0,0,0,0,0,0,0
0,0,41,-33,1921,596,-35,3,122,0,0,0,0,0,0,0,0,0,0,0
0,0,50,-35,1924,595,-33,5,135,0,0,0,0,0,0,0,0,0,0,0
0,0,56,-29,1925,597,-34,5,149,0,0,0,0,0,0,0,0,0,0,0
0,0,50,-39,1919,595,-32,6,128,0,0,0,0,0,0,0,0,0,0,0
0,0,41,-39,1918,595,-33,6,117,0,0,0,0,0,0,0,0,0,0,0
0,0,46,-35,1925,595,-33,5,132,0,0,0,0,0,0,0,0,0,0,0
0,0,46,-34,1930,596,-34,5,138,0,0,0,0,0,0,0,0,0,0,0
0,0,46,-34,1917,596,-34,4,124,0,0,0,0,0,0,0,0,0,0,0
0,0,35,-42,1919,597,-32,7,113,0,0,0,0,0,0,0,0,0,0,0
0,0,42,-36,1917,595,-32,3,118,0,0,0,0,0,0,0,0,0,0,0
0,0,40,-41,1921,593,-32,3,113,0,0,0,0,0,0,0,0,0,0,0
0,0,43,-41,1922,596,-32,3,120,0,0,0,0,0,0,0,0,0,0,0
0,0,46,-39,1913,596,-35,3,113,0,0,0,0,0,0,0,0,0,0,0
0,0,46,-39,1921,596,-32,4,125,0,0,0,0,0,0,0,0,0,0,0
0,0,44,-31,1925,594,-33,5,133,0,0,0,0,0,0,0,0,0,0,0
0,0,37,-34,1927,596,-32,4,127,0,0,0,0,0,0,0,0,0,0,0
0,0,43,-36,1921,594,-32,3,122,0,0,0,0,0,0,0,0,0,0,0
0,0,45,-40,1922,596,-32,6,126,0,0,0,0,0,0,0,0,0,0,0
0,0,52,-45,1915,597,-33,6,121,0,0,0,0,0,0,0,0,0,0,0
0,0,46,-36,1923,595,-32,3,128,0,0,0,0,0,0,0,0,0,0,0
0,0,52,-38,1927,595,-33,4,136,0,0,0,0,0,0,0,0,0,0,0
0,0,51,-30,1915,598,-31,5,137,0,0,0,0,0,0,0,0,0,0,0
0,0,56,-43,1916,596,-33,4,125,0,0,0,0,0,0,0,0,0,0,0
0,0,50,-32,1919,594,-32,4,132,0,0,0,0,0,0,0,0,0,0,0
0,0,48,-42,1925,596,-32,4,128,0,0,0,0,0,0,0,0,0,0,0
0,0,47,-40,1919,598,-32,5,126,0,0,0,0,0,0,0,0,0,0,0
0,0,54,-31,1921,595,-32,6,142,0,0,0,0,0,0,0,0,0,0,0
0,0,43,-30,1932,597,-32,5,144,0,0,0,0,0,0,0,0,0,0,0
0,0,42,-35,1926,596,-30,4,132,0,0,0,0,0,0,0,0,0,0,0
0,0,45,-42,1915,596,-32,8,119,0,0,0,0,0,0,0,0,0,0,0
0,0,44,-33,1926,597,-33,7,137,0,0,0,0,0,0,0,0,0,0,0
0,0,38,-37,1921,595,-32,4,118,0,0,0,0,0,0,0,0,0,0,0
0,0,36,-36,1921,596,-33,4,117,0,0,0,0,0,0,0,0,0,0,0
0,0,46,-41,1913,597,-32,5,117,0,0,0,0,0,0,0,0,0,0,0
0,0,46,-47,1907,597,-32,4,104,0,0,0,0,0,0,0,0,0,0,0
0,0,41,-38,1908,594,-33,6,107,0,0,0,0,0,0,0,0,0,0,0
0,0,45,-35,1909,597,-30,6,121,0,0,0,0,0,0,0,0,0,0,0
0,0,47,-33,1923,597,-31,3,135,0,0,0,0,0,0,0,0,0,0,0
0,0,37,-32,1932,596,-31,4,135,0,0,0,0,0,0,0,0,0,0,0
0,0,47,-33,1921,596,-32,5,133,0,0,0,0,0,0,0,0,0,0,0
0,0,50,-34,1915,596,-30,3,129,0,0,0,0,0,0,0,0,0,0,0
0,0,56,-38,1920,595,-31,4,135,0,0,0,0,0,0,0,0,0,0,0
0,0,46,-44,1926,595,-31,4,125,0,0,0,0,0,0,0,0,0,0,0
0,0,44,-36,1921,595,-32,3,124,0,0,0,0,0,0,0,0,0,0,0
0,0,46,-32,1909,596,-32,6,122,0,0,0,0,0,0,0,0,0,0,0
0,0,55,-29,1919,597,-33,6,144,0,0,0,0,0,0,0,0,0,0,0
0,0,40,-36,1920,596,-32,5,122,0,0,0,0,0,0,0,0,0,0,0
0,0,47,-44,1917,596,-33,5,117,0,0,0,0,0,0,0,0,0,0,0
0,0,47,-36,1923,595,-34,5,129,0,0,0,0,0,0,0,0,0,0,0
0,0,41,-31,1915,597,-33,4,122,0,0,0,0,0,0,0,0,0,0,0
0,0,44,-34,1918,596,-34,5,124,0,0,0,0,0,0,0,0,0,0,0
0,0,47,-39,1924,596,-33,5,129,0,0,0,0,0,0,0,0,0,0,0
0,0,45,-41,1916,596,-32,6,119,0,0,0,0,0,0,0,0,0,0,0
0,0,47,-34,1925,596,-33,4,134,0,0,0,0,0,0,0,0,0,0,0
0,0,44,-38,1922,596,-32,5,126,0,0,0,0,0,0,0,0,0,0,0
0,0,44,-42,1923,597,-32,6,125,0,0,0,0,0,0,0,0,0,0,0
0,0,44,-25,1923,596,-33,6,140,0,0,0,0,0,0,0,0,0,0,0
0,0,45,-41,1918,596,-32,4,119,0,0,0,0,0,0,0,0,0,0,0
0,0,46,-36,1916,596,-33,5,123,0,0,0,0,0,0,0,0,0,0,0
0,0,45,-35,1918,595,-33,4,123,0,0,0,0,0,0,0,0,0,0,0
0,0,48,-36,1922,594,-32,6,131,0,0,0,0,0,0,0,0,0,0,0
0,0,43,-37,1914,595,-33,5,116,0,0,0,0,0,0,0,0,0,0,0
0,0,38,-33,1923,595,-31,5,126,0,0,0,0,0,0,0,0,0,0,0
0,0,47,-33,1928,597,-31,3,140,0,0,0,0,0,0,0,0,0,0,0
0,0,55,-33,1922,595,-32,4,140,0,0,0,0,0,0,0,0,0,0,0
0,0,49,-33,1928,597,-30,4,144,0,0,0,0,0,0,0,0,0,0,0
0,0,38,-39,1920,596,-32,5,117,0,0,0,0,0,0,0,0,0,0,0
0,0,43,-38,1924,596,-33,3,124,0,0,0,0,0,0,0,0,0,0,0
0,0,47,-33,1922,595,-33,7,134,0,0,0,0,0,0,0,0,0,0,0
0,0,49,-38,1917,595,-31,4,125,0,0,0,0,0,0,0,0,0,0,0
0,0,49,-43,1922,597,-31,5,128,0,0,0,0,0,0,0,0,0,0,0
0,0,48,-44,1922,597,-32,5,125,0,0,0,0,0,0,0,0,0,0,0
0,0,42,-35,1908,595,-33,6,112,0,0,0,0,0,0,0,0,0,0,0
0,0,47,-37,1912,597,-32,4,120,0,0,0,0,0,0,0,0,0,0,0
0,0,49,-33,1922,596,-31,5,137,0,0,0,0,0,0,0,0,0,0,0
0,0,49,-34,1915,597,-32,6,130,0,0,0,0,0,0,0,0,0,0,0
0,0,48,-31,1912,595,-32,6,127,0,0,0,0,0,0,0,0,0,0,0
0,0,41,-37,1921,595,-32,6,123,0,0,0,0,0,0,0,0,0,0,0
0,0,52,-35,1921,597,-34,3,133,0,0,0,0,0,0,0,0,0,0,0
0,0,49,-33,1926,594,-30,6,141,0,0,0,0,0,0,0,0,0,0,0
0,0,47,-35,1929,595,-33,4,136,0,0,0,0,0,0,0,0,0,0,0
0,0,50,-40,1915,598,-34,5,123,0,0,0,0,0,0,0,0,0,0,0
0,0,45,-42,1921,597,-32,5,123,0,0,0,0,0,0,0,0,0,0,0
0,0,41,-31,1929,597,-31,4,138,0,0,0,0,0,0,0,0,0,0,0
0,0,52,-33,1917,595,-32,5,133,0,0,0,0,0,0,0,0,0,0,0
0,0,49,-37,1916,595,-33,4,123,0,0,0,0,0,0,0,0,0,0,0
0,0,47,-25,1921,594,-30,5,141,0,0,0,0,0,0,0,0,0,0,0
0,0,43,-41,1937,595,-32,4,135,0,0,0,0,0,0,0,0,0,0,0
0,0,42,-28,1920,596,-33,6,132,0,0,0,0,0,0,0,0,0,0,0
0,0,51,-32,1919,597,-32,5,137,0,0,0,0,0,0,0,0,0,0,0
0,0,47,-39,1919,595,-32,5,124,0,0,0,0,0,0,0,0,0,0,0
0,0,46,-33,1908,596,-32,5,119,0,0,0,0,0,0,0,0,0,0,0
0,0,49,-39,1918,595,-33,6,125,0,0,0,0,0,0,0,0,0,0,0
0,0,50,-35,1923,596,-31,5,137,0,0,0,0,0,0,0,0,0,0,0
0,0,53,-32,1916,596,-31,6,137,0,0,0,0,0,0,0,0,0,0,0
0,0,47,-34,1918,596,-32,6,130,0,0,0,0,0,0,0,0,0,0,0
0,0,40,-39,1930,597,-31,5,131,0,0,0,0,0,0,0,0,0,0,0
0,0,43,-38,1926,595,-31,5,129,0,0,0,0,0,0,0,0,0,0,0
0,0,42,-37,1928,596,-32,5,131,0,0,0,0,0,0,0,0,0,0,0
0,0,49,-33,1920,595,-32,5,133,0,0,0,0,0,0,0,0,0,0,0
0,0,43,-24,1928,596,-33,6,145,0,0,0,0,0,0,0,0,0,0,0
0,0,47,-33,1922,597,-33,4,133,0,0,0,0,0,0,0,0,0,0,0
0,0,51,-29,1928,594,-32,5,146,0,0,0,0,0,0,0,0,0,0,0
0,0,49,-45,1933,598,-31,5,138,0,0,0,0,0,0,0,0,0,0,0
0,0,47,-39,1906,596,-31,6,114,0,0,0,0,0,0,0,0,0,0,0
0,0,50,-35,1910,595,-30,4,123,0,0,0,0,0,0,0,0,0,0,0
0,0,47,-36,1929,597,-33,5,138,0,0,0,0,0,0,0,0,0,0,0
0,0,47,-42,1922,595,-31,4,124,0,0,0,0,0,0,0,0,0,0,0
0,0,42,-33,1922,595,-31,4,128,0,0,0,0,0,0,0,0,0,0,0
0,0,46,-41,1920,595,-30,4,123,0,0,0,0,0,0,0,0,0,0,0
0,0,44,-35,1919,596,-33,4,124,0,0,0,0,0,0,0,0,0,0,0
0,0,46,-38,1925,595,-33,5,129,0,0,0,0,0,0,0,0,0,0,0
0,0,51,-32,1931,595,-32,4,146,0,0,0,0,0,0,0,0,0,0,0
0,0,44,-36,1917,594,-32,3,119,0,0,0,0,0,0,0,0,0,0,0
0,0,41,-38,1917,594,-31,5,117,0,0,0,0,0,0,0,0,0,0,0
0,0,48,-33,1921,595,-32,5,133,0,0,0,0,0,0,0,0,0,0,0
0,0,51,-38,1918,597,-30,3,130,0,0,0,0,0,0,0,0,0,0,0
0,0,49,-37,1921,596,-29,5,134,0,0,0,0,0,0,0,0,0,0,0
0,0,51,-37,1920,595,-32,4,130,0,0,0,0,0,0,0,0,0,0,0
0,0,50,-36,1932,595,-32,4,142,0,0,0,0,0,0,0,0,0,0,0
0,0,48,-38,1921,595,-32,6,129,0,0,0,0,0,0,0,0,0,0,0
0,0,39,-32,1926,597,-31,4,132,0,0,0,0,0,0,0,0,0,0,0
0,0,44,-35,1913,597,-32,4,120,0,0,0,0,0,0,0,0,0,0,0
0,0,44,-46,1921,594,-31,5,116,0,0,0,0,0,0,0,0,0,0,0
0,0,47,-40,1915,594,-32,4,117,0,0,0,0,0,0,0,0,0,0,0
0,0,50,-28,1922,596,-32,5,142,0,0,0,0,0,0,0,0,0,0,0
0,0,47,-37,1932,596,-32,5,140,0,0,0,0,0,0,0,0,0,0,0
0,0,51,-38,1914,596,-31,4,125,0,0,0,0,0,0,0,0,0,0,0
0,0,50,-38,1931,595,-34,5,138,0,0,0,0,0,0,0,0,0,0,0
0,0,46,-35,1925,594,-32,4,131,0,0,0,0,0,0,0,0,0,0,0
0,0,48,-37,1939,596,-32,4,147,0,0,0,0,0,0,0,0,0,0,0
0,0,42,-38,1927,596,-32,6,130,0,0,0,0,0,0,0,0,0,0,0
0,0,44,-28,1927,597,-32,6,143,0,0,0,0,0,0,0,0,0,0,0
0,0,44,-40,1923,597,-32,5,126,0,0,0,0,0,0,0,0,0,0,0
0,0,38,-37,1922,597,-32,4,121,0,0,0,0,0,0,0,0,0,0,0
0,0,42,-34,1913,598,-31,4,121,0,0,0,0,0,0,0,0,0,0,0
0,0,48,-38,1919,597,-33,4,126,0,0,0,0,0,0,0,0,0,0,0
0,0,41,-30,1909,597,-33,7,120,0,0,0,0,0,0,0,0,0,0,0
0,0,35,-35,1921,597,-31,5,121,0,0,0,0,0,0,0,0,0,0,0
0,0,42,-45,1915,597,-32,6,112,0,0,0,0,0,0,0,0,0,0,0
0,0,38,-35,1917,597,-31,4,119,0,0,0,0,0,0,0,0,0,0,0
0,0,47,-36,1931,595,-32,5,139,0,0,0,0,0,0,0,0,0,0,0
0,0,46,-36,1924,596,-33,6,132,0,0,0,0,0,0,0,0,0,0,0
0,0,50,-40,1929,596,-34,6,136,0,0,0,0,0,0,0,0,0,0,0
0,0,48,-31,1923,598,-33,6,140,0,0,0,0,0,0,0,0,0,0,0
0,0,47,-30,1919,596,-34,4,131,0,0,0,0,0,0,0,0,0,0,0
0,0,48,-36,1925,597,-34,5,134,0,0,0,0,0,0,0,0,0,0,0
0,0,41,-42,1925,595,-32,6,122,0,0,0,0,0,0,0,0,0,0,0
0,0,39,-43,1919,596,-31,6,115,0,0,0,0,0,0,0,0,0,0,0
0,0,42,-43,1916,595,-32,5,112,0,0,0,0,0,0,0,0,0,0,0
0,0,41,-41,1925,595,-30,4,123,0,0,0,0,0,0,0,0,0,0,0
0,0,49,-38,1922,596,-33,5,130,0,0,0,0,0,0,0,0,0,0,0
0,0,44,-38,1925,596,-31,6,131,0,0,0,0,0,0,0,0,0,0,0
0,0,40,-39,1930,596,-33,4,127,0,0,0,0,0,0,0,0,0,0,0
0,0,48,-35,1922,596,-33,4,131,0,0,0,0,0,0,0,0,0,0,0
0,0,49,-32,1915,596,-32,4,129,0,0,0,0,0,0,0,0,0,0,0
0,0,44,-40,1925,597,-32,3,126,0,0,0,0,0,0,0,0,0,0,0
0,0,47,-46,1925,597,-31,3,124,0,0,0,0,0,0,0,0,0,0,0
0,0,40,-27,1922,595,-33,4,130,0,0,0,0,0,0,0,0,0,0,0
0,0,45,-25,1917,596,-32,4,134,0,0,0,0,0,0,0,0,0,0,0
0,0,44,-37,1917,595,-31,5,122,0,0,0,0,0,0,0,0,0,0,0
0,0,45,-37,1922,596,-34,5,126,0,0,0,0,0,0,0,0,0,0,0
0,0,48,-39,1916,595,-33,4,120,0,0,0,0,0,0,0,0,0,0,0
0,0,46,-40,1914,597,-32,5,119,0,0,0,0,0,0,0,0,0,0,0
0,0,46,-37,1920,595,-32,6,127,0,0,0,0,0,0,0,0,0,0,0
0,0,50,-38,1919,598,-31,4,131,0,0,0,0,0,0,0,0,0,0,0
0,0,41,-38,1911,595,-33,4,109,0,0,0,0,0,0,0,0,0,0,0
0,0,48,-32,1907,595,-31,4,120,0,0,0,0,0,0,0,0,0,0,0
0,0,48,-32,1918,595,-32,6,132,0,0,0,0,0,0,0,0,0,0,0
0,0,51,-31,1928,596,-33,4,144,0,0,0,0,0,0,0,0,0,0,0
0,0,41,-36,1917,595,-34,4,116,0,0,0,0,0,0,0,0,0,0,0
0,0,47,-40,1914,596,-34,4,116,0,0,0,0,0,0,0,0,0,0,0
0,0,46,-33,1918,598,-31,4,131,0,0,0,0,0,0,0,0,0,0,0
0,0,42,-33,1921,596,-33,3,125,0,0,0,0,0,0,0,0,0,0,0
0,0,50,-44,1935,595,-32,5,138,0,0,0,0,0,0,0,0,0,0,0
0,0,49,-41,1917,595,-31,4,122,0,0,0,0,0,0,0,0,0,0,0
0,0,46,-36,1924,596,-33,4,130,0,0,0,0,0,0,0,0,0,0,0
0,0,36,-38,1925,596,-34,4,118,0,0,0,0,0,0,0,0,0,0,0
0,0,47,-37,1926,596,-34,5,132,0,0,0,0,0,0,0,0,0,0,0
0,0,44,-39,1916,596,-33,4,117,0,0,0,0,0,0,0,0,0,0,0
0,0,49,-36,1915,596,-32,5,126,0,0,0,0,0,0,0,0,0,0,0
0,0,40,-32,1925,595,-33,5,129,0,0,0,0,0,0,0,0,0,0,0
0,0,45,-26,1929,598,-31,5,149,0,0,0,0,0,0,0,0,0,0,0
0,0,48,-44,1917,597,-32,5,120,0,0,0,0,0,0,0,0,0,0,0
0,0,50,-36,1916,597,-31,4,129,0,0,0,0,0,0,0,0,0,0,0
0,0,53,-28,1921,597,-33,5,144,0,0,0,0,0,0,0,0,0,0,0
0,0,49,-30,1921,596,-34,5,136,0,0,0,0,0,0,0,0,0,0,0
0,0,47,-35,1911,597,-32,4,121,0,0,0,0,0,0,0,0,0,0,0
0,0,53,-42,1920,595,-32,5,128,0,0,0,0,0,0,0,0,0,0,0
0,0,48,-42,1921,595,-32,5,124,0,0,0,0,0,0,0,0,0,0,0
0,0,48,-33,1923,596,-33,5,135,0,0,0,0,0,0,0,0,0,0,0
0,0,50,-43,1920,596,-33,5,124,0,0,0,0,0,0,0,0,0,0,0
0,0,49,-25,1912,596,-33,6,134,0,0,0,0,0,0,0,0,0,0,0
0,0,42,-36,1922,596,-32,5,126,0,0,0,0,0,0,0,0,0,0,0
0,0,42,-39,1917,597,-32,5,119,0,0,0,0,0,0,0,0,0,0,0
0,0,51,-41,1922,596,-33,5,129,0,0,0,0,0,0,0,0,0,0,0
0,0,48,-33,1918,594,-32,4,128,0,0,0,0,0,0,0,0,0,0,0
0,0,52,-39,1920,596,-32,4,130,0,0,0,0,0,0,0,0,0,0,0
0,0,45,-37,1916,595,-33,6,121,0,0,0,0,0,0,0,0,0,0,0
0,0,47,-37,1922,594,-33,4,126,0,0,0,0,0,0,0,0,0,0,0
0,0,42,-36,1915,596,-32,4,118,0,0,0,0,0,0,0,0,0,0,0
0,0,54,-34,1917,597,-29,5,139,0,0,0,0,0,0,0,0,0,0,0
0,0,39,-35,1922,595,-31,6,125,0,0,0,0,0,0,0,0,0,0,0
0,0,55,-36,1916,595,-33,5,131,0,0,0,0,0,0,0,0,0,0,0
0,0,46,-35,1919,597,-34,5,127,0,0,0,0,0,0,0,0,0,0,0
0,0,52,-39,1923,594,-33,6,132,0,0,0,0,0,0,0,0,0,0,0
0,0,47,-36,1925,596,-32,5,134,0,0,0,0,0,0,0,0,0,0,0
0,0,43,-33,1921,596,-32,6,130,0,0,0,0,0,0,0,0,0,0,0
0,0,53,-39,1925,596,-33,5,136,0,0,0,0,0,0,0,0,0,0,0
0,0,49,-32,1925,597,-32,5,141,0,0,0,0,0,0,0,0,0,0,0
0,0,45,-30,1930,598,-32,7,147,0,0,0,0,0,0,0,0,0,0,0
0,0,47,-29,1910,597,-32,6,128,0,0,0,0,0,0,0,0,0,0,0
0,0,45,-34,1910,595,-33,4,116,0,0,0,0,0,0,0,0,0,0,0
0,0,48,-41,1916,596,-32,5,121,0,0,0,0,0,0,0,0,0,0,0
0,0,49,-44,1925,597,-33,4,127,0,0,0,0,0,0,0,0,0,0,0
0,0,42,-47,1918,596,-33,7,112,0,0,0,0,0,0,0,0,0,0,0
0,0,36,-41,1928,596,-33,3,118,0,0,0,0,0,0,0,0,0,0,0
0,0,56,-36,1919,597,-32,5,138,0,0,0,0,0,0,0,0,0,0,0
0,0,45,-34,1922,597,-32,5,132,0,0,0,0,0,0,0,0,0,0,0
0,0,46,-40,1929,595,-32,7,134,0,0,0,0,0,0,0,0,0,0,0
0,0,50,-37,1921,598,-33,4,132,0,0,0,0,0,0,0,0,0,0,0
0,0,38,-35,1912,595,-31,4,112,0,0,0,0,0,0,0,0,0,0,0
0,0,47,-36,1922,597,-33,5,131,0,0,0,0,0,0,0,0,0,0,0
0,0,41,-41,1915,596,-31,5,114,0,0,0,0,0,0,0,0,0,0,0
0,0,51,-33,1919,596,-30,5,137,0,0,0,0,0,0,0,0,0,0,0
0,0,52,-32,1928,595,-33,6,145,0,0,0,0,0,0,0,0,0,0,0
0,0,53,-36,1928,597,-33,5,143,0,0,0,0,0,0,0,0,0,0,0
0,0,45,-38,1921,596,-32,3,124,0,0,0,0,0,0,0,0,0,0,0
0,0,50,-34,1919,594,-32,5,131,0,0,0,0,0,0,0,0,0,0,0
0,0,51,-31,1922,595,-32,3,137,0,0,0,0,0,0,0,0,0,0,0
0,0,46,-47,1915,596,-32,4,111,0,0,0,0,0,0,0,0,0,0,0
0,0,53,-42,1914,595,-33,5,121,0,0,0,0,0,0,0,0,0,0,0
0,0,40,-37,1924,594,-32,5,123,0,0,0,0,0,0,0,0,0,0,0
0,0,41,-39,1917,596,-32,8,120,0,0,0,0,0,0,0,0,0,0,0
0,0,49,-39,1920,596,-33,5,127,0,0,0,0,0,0,0,0,0,0,0
0,0,43,-37,1922,597,-34,7,127,0,0,0,0,0,0,0,0,0,0,0
0,0,45,-43,1919,597,-34,5,118,0,0,0,0,0,0,0,0,0,0,0
0,0,47,-40,1918,597,-33,4,122,0,0,0,0,0,0,0,0,0,0,0
0,0,40,-33,1923,595,-32,4,126,0,0,0,0,0,0,0,0,0,0,0
0,0,44,-35,1934,595,-32,5,140,0,0,0,0,0,0,0,0,0,0,0
0,0,40,-38,1919,597,-31,4,120,0,0,0,0,0,0,0,0,0,0,0
0,0,49,-31,1921,595,-32,6,137,0,0,0,0,0,0,0,0,0,0,0
0,0,47,-39,1919,596,-32,6,126,0,0,0,0,0,0,0,0,0,0,0
0,0,52,-34,1921,596,-32,5,137,0,0,0,0,0,0,0,0,0,0,0
0,0,48,-41,1921,598,-32,6,129,0,0,0,0,0,0,0,0,0,0,0
0,0,49,-34,1916,598,-32,3,129,0,0,0,0,0,0,0,0,0,0,0
0,0,47,-34,1927,596,-32,5,138,0,0,0,0,0,0,0,0,0,0,0
0,0,48,-39,1909,596,-32,3,114,0,0,0,0,0,0,0,0,0,0,0
0,0,52,-35,1908,595,-32,4,121,0,0,0,0,0,0,0,0,0,0,0
0,0,41,-26,1915,597,-32,5,129,0,0,0,0,0,0,0,0,0,0,0
0,0,39,-35,1921,598,-32,5,125,0,0,0,0,0,0,0,0,0,0,0
0,0,46,-40,1923,597,-32,4,127,0,0,0,0,0,0,0,0,0,0,0
0,0,44,-33,1918,598,-31,4,129,0,0,0,0,0,0,0,0,0,0,0
0,0,50,-34,1911,596,-30,5,127,0,0,0,0,0,0,0,0,0,0,0
0,0,52,-42,1918,598,-33,4,126,0,0,0,0,0,0,0,0,0,0,0
0,0,50,-39,1926,596,-30,5,137,0,0,0,0,0,0,0,0,0,0,0
0,0,53,-26,1913,598,-33,5,139,0,0,0,0,0,0,0,0,0,0,0
0,0,43,-30,1922,597,-33,5,133,0,0,0,0,0,0,0,0,0,0,0
0,0,41,-44,1911,596,-33,3,103,0,0,0,0,0,0,0,0,0,0,0
0,0,41,-37,1919,597,-34,4,119,0,0,0,0,0,0,0,0,0,0,0
0,0,50,-36,1912,594,-33,6,122,0,0,0,0,0,0,0,0,0,0,0
0,0,52,-37,1921,597,-32,7,137,0,0,0,0,0,0,0,0,0,0,0
0,0,45,-38,1916,595,-32,4,119,0,0,0,0,0,0,0,0,0,0,0
0,0,47,-37,1918,594,-31,5,125,0,0,0,0,0,0,0,0,0,0,0
0,0,40,-37,1919,597,-32,5,121,0,0,0,0,0,0,0,0,0,0,0
0,0,44,-35,1926,600,-35,5,134,0,0,0,0,0,0,0,0,0,0,0
0,0,48,-37,1924,595,-33,5,131,0,0,0,0,0,0,0,0,0,0,0
0,0,46,-37,1922,597,-34,5,128,0,0,0,0,0,0,0,0,0,0,0
0,0,46,-37,1916,597,-34,4,121,0,0,0,0,0,0,0,0,0,0,0
0,0,49,-37,1925,596,-34,4,132,0,0,0,0,0,0,0,0,0,0,0
0,0,46,-38,1916,598,-31,5,125,0,0,0,0,0,0,0,0,0,0,0
0,0,44,-30,1919,597,-32,3,130,0,0,0,0,0,0,0,0,0,0,0
0,0,45,-33,1923,597,-33,6,134,0,0,0,0,0,0,0,0,0,0,0
0,0,41,-35,1922,595,-32,5,125,0,0,0,0,0,0,0,0,0,0,0
0,0,40,-28,1930,595,-31,5,140,0,0,0,0,0,0,0,0,0,0,0
0,0,45,-46,1928,597,-32,6,127,0,0,0,0,0,0,0,0,0,0,0
0,0,43,-31,1923,595,-33,3,129,0,0,0,0,0,0,0,0,0,0,0
0,0,47,-40,1923,598,-33,3,127,0,0,0,0,0,0,0,0,0,0,0
0,0,47,-37,1911,595,-32,4,117,0,0,0,0,0,0,0,0,0,0,0
0,0,43,-39,1923,595,-34,5,122,0,0,0,0,0,0,0,0,0,0,0
0,0,43,-39,1922,596,-34,6,123,0,0,0,0,0,0,0,0,0,0,0
0,0,48,-39,1909,595,-33,5,114,0,0,0,0,0,0,0,0,0,0,0
0,0,47,-32,1922,595,-32,5,134,0,0,0,0,0,0,0,0,0,0,0
0,0,52,-34,1910,596,-33,6,126,0,0,0,0,0,0,0,0,0,0,0
0,0,50,-39,1911,596,-33,6,120,0,0,0,0,0,0,0,0,0,0,0
0,0,53,-33,1921,597,-33,5,139,0,0,0,0,0,0,0,0,0,0,0
0,0,54,-32,1922,596,-33,5,141,0,0,0,0,0,0,0,0,0,0,0
0,0,39,-35,1927,595,-31,5,129,0,0,0,0,0,0,0,0,0,0,0
0,0,51,-36,1929,595,-34,6,140,0,0,0,0,0,0,0,0,0,0,0
0,0,49,-40,1912,595,-34,6,117,0,0,0,0,0,0,0,0,0,0,0
0,0,51,-41,1917,595,-33,6,124,0,0,0,0,0,0,0,0,0,0,0
0,0,51,-40,1921,597,-32,5,131,0,0,0,0,0,0,0,0,0,0,0
0,0,46,-46,1917,596,-32,6,116,0,0,0,0,0,0,0,0,0,0,0
0,0,38,-41,1927,597,-34,5,121,0,0,0,0,0,0,0,0,0,0,0
0,0,48,-34,1918,595,-31,6,131,0,0,0,0,0,0,0,0,0,0,0
0,0,39,-35,1920,596,-34,4,119,0,0,0,0,0,0,0,0,0,0,0
0,0,42,-38,1923,595,-33,4,122,0,0,0,0,0,0,0,0,0,0,0
0,0,35,-35,1929,595,-32,4,125,0,0,0,0,0,0,0,0,0,0,0
0,0,39,-28,1920,597,-32,5,130,0,0,0,0,0,0,0,0,0,0,0
0,0,47,-37,1914,597,-32,4,122,0,0,0,0,0,0,0,0,0,0,0
0,0,36,-38,1920,596,-33,6,116,0,0,0,0,0,0,0,0,0,0,0
0,0,47,-37,1912,596,-33,2,116,0,0,0,0,0,0,0,0,0,0,0
0,0,47,-36,1921,597,-32,6,132,0,0,0,0,0,0,0,0,0,0,0
0,0,50,-38,1922,595,-33,6,131,0,0,0,0,0,0,0,0,0,0,0
0,0,46,-40,1927,596,-31,4,131,0,0,0,0,0,0,0,0,0,0,0
0,0,38,-35,1923,596,-32,4,123,0,0,0,0,0,0,0,0,0,0,0
0,0,53,-37,1916,597,-32,6,132,0,0,0,0,0,0,0,0,0,0,0
0,0,42,-32,1913,596,-33,4,119,0,0,0,0,0,0,0,0,0,0,0
0,0,47,-38,1920,597,-33,5,127,0,0,0,0,0,0,0,0,0,0,0
0,0,50,-35,1924,597,-33,5,137,0,0,0,0,0,0,0,0,0,0,0
0,0,58,-35,1919,596,-33,5,139,0,0,0,0,0,0,0,0,0,0,0
0,0,49,-35,1914,596,-32,5,126,0,0,0,0,0,0,0,0,0,0,0
0,0,44,-32,1909,598,-32,4,120,0,0,0,0,0,0,0,0,0,0,0
0,0,44,-32,1920,596,-32,5,130,0,0,0,0,0,0,0,0,0,0,0
0,0,46,-33,1921,596,-33,5,131,0,0,0,0,0,0,0,0,0,0,0
0,0,48,-40,1919,596,-33,5,124,0,0,0,0,0,0,0,0,0,0,0
0,0,49,-34,1927,595,-33,4,137,0,0,0,0,0,0,0,0,0,0,0
0,0,43,-39,1918,598,-31,4,122,0,0,0,0,0,0,0,0,0,0,0
0,0,46,-36,1921,597,-32,4,129,0,0,0,0,0,0,0,0,0,0,0
0,0,45,-32,1925,596,-31,5,137,0,0,0,0,0,0,0,0,0,0,0
0,0,47,-38,1925,597,-32,4,132,0,0,0,0,0,0,0,0,0,0,0
0,0,49,-35,1934,596,-32,4,145,0,0,0,0,0,0,0,0,0,0,0
0,0,49,-35,1924,597,-31,6,139,0,0,0,0,0,0,0,0,0,0,0
0,0,51,-40,1910,597,-31,5,121,0,0,0,0,0,0,0,0,0,0,0
0,0,53,-35,1918,595,-34,5,131,0,0,0,0,0,0,0,0,0,0,0
0,0,52,-41,1917,598,-33,5,127,0,0,0,0,0,0,0,0,0,0,0
0,0,48,-40,1912,597,-34,4,116,0,0,0,0,0,0,0,0,0,0,0
0,0,42,-42,1922,594,-33,5,117,0,0,0,0,0,0,0,0,0,0,0
0,0,52,-40,1920,595,-31,5,130,0,0,0,0,0,0,0,0,0,0,0
0,0,51,-33,1920,597,-32,4,136,0,0,0,0,0,0,0,0,0,0,0
0,0,50,-36,1919,597,-32,6,133,0,0,0,0,0,0,0,0,0,0,0
0,0,50,-35,1916,595,-31,6,130,0,0,0,0,0,0,0,0,0,0,0
0,0,42,-37,1921,597,-32,5,125,0,0,0,0,0,0,0,0,0,0,0
0,0,50,-34,1906,597,-31,5,122,0,0,0,0,0,0,0,0,0,0,0
0,0,50,-30,1918,595,-34,5,133,0,0,0,0,0,0,0,0,0,0,0
0,0,50,-44,1923,596,-35,5,124,0,0,0,0,0,0,0,0,0,0,0
0,0,42,-34,1916,598,-32,3,122,0,0,0,0,0,0,0,0,0,0,0
0,0,51,-35,1924,597,-32,5,139,0,0,0,0,0,0,0,0,0,0,0
0,0,44,-37,1923,596,-32,5,128,0,0,0,0,0,0,0,0,0,0,0
0,0,44,-41,1928,596,-32,4,128,0,0,0,0,0,0,0,0,0,0,0
0,0,45,-40,1922,595,-31,4,124,0,0,0,0,0,0,0,0,0,0,0
0,0,42,-37,1922,595,-31,4,124,0,0,0,0,0,0,0,0,0,0,0
0,0,44,-36,1918,596,-32,6,125,0,0,0,0,0,0,0,0,0,0,0
0,0,43,-36,1918,594,-34,5,119,0,0,0,0,0,0,0,0,0,0,0
0,0,50,-34,1909,596,-32,4,122,0,0,0,0,0,0,0,0,0,0,0
0,0,55,-26,1930,596,-33,5,156,0,0,0,0,0,0,0,0,0,0,0
0,0,43,-37,1921,595,-34,6,123,0,0,0,0,0,0,0,0,0,0,0
0,0,50,-32,1936,597,-33,5,152,0,0,0,0,0,0,0,0,0,0,0
0,0,50,-39,1919,597,-32,7,131,0,0,0,0,0,0,0,0,0,0,0
0,0,47,-27,1912,597,-32,5,131,0,0,0,0,0,0,0,0,0,0,0
0,0,49,-41,1921,596,-32,5,127,0,0,0,0,0,0,0,0,0,0,0
0,0,46,-34,1926,595,-32,5,135,0,0,0,0,0,0,0,0,0,0,0
0,0,49,-47,1922,595,-32,3,119,0,0,0,0,0,0,0,0,0,0,0
0,0,47,-35,1916,596,-31,5,127,0,0,0,0,0,0,0,0,0,0,0
0,0,45,-37,1919,597,-34,4,123,0,0,0,0,0,0,0,0,0,0,0
0,0,44,-48,1916,597,-32,4,110,0,0,0,0,0,0,0,0,0,0,0
0,0,44,-43,1917,595,-32,5,115,0,0,0,0,0,0,0,0,0,0,0
0,0,45,-36,1935,596,-30,4,143,0,0,0,0,0,0,0,0,0,0,0
0,0,41,-33,1926,596,-33,4,130,0,0,0,0,0,0,0,0,0,0,0
0,0,41,-32,1920,597,-33,5,127,0,0,0,0,0,0,0,0,0,0,0
0,0,44,-35,1926,597,-32,6,135,0,0,0,0,0,0,0,0,0,0,0
0,0,51,-37,1909,597,-32,5,122,0,0,0,0,0,0,0,0,0,0,0
0,0,46,-38,1914,596,-31,4,120,0,0,0,0,0,0,0,0,0,0,0
0,0,40,-36,1932,595,-31,5,134,0,0,0,0,0,0,0,0,0,0,0
0,0,51,-40,1927,596,-31,5,137,0,0,0,0,0,0,0,0,0,0,0
0,0,48,-31,1923,595,-32,4,136,0,0,0,0,0,0,0,0,0,0,0
0,0,43,-33,1912,596,-31,5,121,0,0,0,0,0,0,0,0,0,0,0
0,0,49,-33,1924,595,-33,5,136,0,0,0,0,0,0,0,0,0,0,0
0,0,53,-38,1915,596,-32,5,128,0,0,0,0,0,0,0,0,0,0,0
0,0,46,-38,1924,596,-33,5,129,0,0,0,0,0,0,0,0,0,0,0
0,0,43,-41,1921,596,-32,7,123,0,0,0,0,0,0,0,0,0,0,0
0,0,40,-35,1920,597,-31,5,125,0,0,0,0,0,0,0,0,0,0,0
0,0,46,-43,1922,597,-31,6,126,0,0,0,0,0,0,0,0,0,0,0
0,0,48,-41,1917,595,-33,5,120,0,0,0,0,0,0,0,0,0,0,0
0,0,44,-37,1924,594,-33,5,126,0,0,0,0,0,0,0,0,0,0,0
0,0,38,-38,1924,595,-33,6,121,0,0,0,0,0,0,0,0,0,0,0
0,0,48,-35,1931,595,-31,4,141,0,0,0,0,0,0,0,0,0,0,0
0,0,42,-38,1925,595,-32,4,125,0,0,0,0,0,0,0,0,0,0,0
0,0,51,-35,1917,596,-32,5,131,0,0,0,0,0,0,0,0,0,0,0
0,0,41,-38,1916,599,-31,5,121,0,0,0,0,0,0,0,0,0,0,0
0,0,47,-28,1919,597,-32,6,138,0,0,0,0,0,0,0,0,0,0,0
0,0,45,-36,1920,596,-33,5,126,0,0,0,0,0,0,0,0,0,0,0
0,0,49,-39,1928,597,-32,6,138,0,0,0,0,0,0,0,0,0,0,0
0,0,45,-39,1911,596,-33,5,114,0,0,0,0,0,0,0,0,0,0,0
0,0,47,-39,1921,596,-31,5,128,0,0,0,0,0,0,0,0,0,0,0
0,0,53,-42,1924,595,-31,5,133,0,0,0,0,0,0,0,0,0,0,0
0,0,49,-34,1917,595,-32,4,128,0,0,0,0,0,0,0,0,0,0,0
0,0,42,-34,1917,597,-34,5,122,0,0,0,0,0,0,0,0,0,0,0
0,0,48,-40,1932,596,-34,6,137,0,0,0,0,0,0,0,0,0,0,0
0,0,55,-35,1914,597,-34,5,131,0,0,0,0,0,0,0,0,0,0,0
0,0,50,-30,1911,596,-33,5,128,0,0,0,0,0,0,0,0,0,0,0
0,0,40,-44,1917,595,-32,2,107,0,0,0,0,0,0,0,0,0,0,0
0,0,42,-38,1932,596,-33,4,132,0,0,0,0,0,0,0,0,0,0,0
0,0,48,-35,1922,595,-32,5,132,0,0,0,0,0,0,0,0,0,0,0
0,0,49,-34,1916,596,-32,4,128,0,0,0,0,0,0,0,0,0,0,0
0,0,44,-34,1921,595,-33,3,125,0,0,0,0,0,0,0,0,0,0,0
0,0,57,-34,1921,597,-32,2,140,0,0,0,0,0,0,0,0,0,0,0
0,0,50,-32,1925,596,-33,5,140,0,0,0,0,0,0,0,0,0,0,0
0,0,51,-37,1910,596,-31,5,123,0,0,0,0,0,0,0,0,0,0,0
0,0,51,-36,1920,596,-32,5,133,0,0,0,0,0,0,0,0,0,0,0
0,0,44,-36,1924,596,-30,6,133,0,0,0,0,0,0,0,0,0,0,0
0,0,42,-43,1913,596,-32,4,109,0,0,0,0,0,0,0,0,0,0,0
0,0,40,-35,1917,596,-32,5,120,0,0,0,0,0,0,0,0,0,0,0
0,0,43,-37,1922,597,-31,5,128,0,0,0,0,0,0,0,0,0,0,0
0,0,47,-37,1924,597,-33,4,131,0,0,0,0,0,0,0,0,0,0,0
0,0,42,-34,1918,594,-33,4,120,0,0,0,0,0,0,0,0,0,0,0
0,0,42,-37,1919,596,-32,4,121,0,0,0,0,0,0,0,0,0,0,0
0,0,47,-36,1921,596,-33,6,130,0,0,0,0,0,0,0,0,0,0,0
0,0,48,-43,1926,597,-32,5,130,0,0,0,0,0,0,0,0,0,0,0
0,0,50,-26,1924,596,-33,3,143,0,0,0,0,0,0,0,0,0,0,0
0,0,50,-35,1911,594,-33,3,119,0,0,0,0,0,0,0,0,0,0,0
0,0,41,-34,1915,596,-32,6,121,0,0,0,0,0,0,0,0,0,0,0
0,0,39,-35,1917,596,-30,5,121,0,0,0,0,0,0,0,0,0,0,0
0,0,43,-33,1931,595,-32,5,138,0,0,0,0,0,0,0,0,0,0,0
0,0,47,-37,1917,597,-33,5,125,0,0,0,0,0,0,0,0,0,0,0
0,0,48,-36,1919,597,-33,5,129,0,0,0,0,0,0,0,0,0,0,0
0,0,50,-33,1924,597,-30,6,143,0,0,0,0,0,0,0,0,0,0,0
0,0,49,-45,1916,596,-32,4,117,0,0,0,0,0,0,0,0,0,0,0
0,0,44,-37,1918,597,-31,5,125,0,0,0,0,0,0,0,0,0,0,0
0,0,51,-42,1914,596,-32,6,122,0,0,0,0,0,0,0,0,0,0,0
0,0,50,-36,1926,595,-31,3,136,0,0,0,0,0,0,0,0,0,0,0
0,0,49,-39,1926,595,-33,3,130,0,0,0,0,0,0,0,0,0,0,0
0,0,43,-34,1919,595,-32,4,124,0,0,0,0,0,0,0,0,0,0,0
0,0,45,-41,1920,596,-33,4,120,0,0,0,0,0,0,0,0,0,0,0
0,0,50,-35,1925,597,-33,6,139,0,0,0,0,0,0,0,0,0,0,0
0,0,48,-35,1913,596,-33,4,122,0,0,0,0,0,0,0,0,0,0,0
0,0,42,-39,1927,595,-32,4,126,0,0,0,0,0,0,0,0,0,0,0
0,0,40,-33,1915,596,-33,5,119,0,0,0,0,0,0,0,0,0,0,0
0,0,44,-46,1927,596,-34,5,121,0,0,0,0,0,0,0,0,0,0,0
0,0,49,-34,1922,596,-33,5,134,0,0,0,0,0,0,0,0,0,0,0
0,0,47,-42,1930,595,-32,4,131,0,0,0,0,0,0,0,0,0,0,0
0,0,45,-37,1924,596,-32,6,131,0,0,0,0,0,0,0,0,0,0,0
0,0,51,-40,1928,595,-32,5,136,0,0,0,0,0,0,0,0,0,0,0
0,0,49,-41,1928,596,-33,5,133,0,0,0,0,0,0,0,0,0,0,0
0,0,39,-37,1920,595,-33,5,118,0,0,0,0,0,0,0,0,0,0,0
0,0,48,-40,1919,597,-32,5,126,0,0,0,0,0,0,0,0,0,0,0
0,0,52,-38,1918,597,-33,4,129,0,0,0,0,0,0,0,0,0,0,0
0,0,47,-39,1929,595,-33,4,132,0,0,0,0,0,0,0,0,0,0,0
0,0,41,-33,1921,595,-32,6,127,0,0,0,0,0,0,0,0,0,0,0
0,0,46,-35,1920,596,-32,7,131,0,0,0,0,0,0,0,0,0,0,0
0,0,48,-25,1911,596,-31,5,133,0,0,0,0,0,0,0,0,0,0,0
0,0,45,-33,1916,598,-32,3,126,0,0,0,0,0,0,0,0,0,0,0
0,0,44,-29,1923,595,-33,5,134,0,0,0,0,0,0,0,0,0,0,0
0,0,40,-39,1923,597,-30,4,124,0,0,0,0,0,0,0,0,0,0,0
0,0,45,-44,1928,598,-33,6,129,0,0,0,0,0,0,0,0,0,0,0
0,0,45,-36,1928,595,-34,5,132,0,0,0,0,0,0,0,0,0,0,0
0,0,39,-43,1930,596,-32,5,124,0,0,0,0,0,0,0,0,0,0,0
0,0,50,-41,1919,598,-32,5,128,0,0,0,0,0,0,0,0,0,0,0
0,0,54,-43,1932,595,-33,5,139,0,0,0,0,0,0,0,0,0,0,0
0,0,47,-38,1918,595,-32,5,124,0,0,0,0,0,0,0,0,0,0,0
0,0,44,-43,1926,597,-33,4,124,0,0,0,0,0,0,0,0,0,0,0
0,0,45,-33,1925,597,-33,4,134,0,0,0,0,0,0,0,0,0,0,0
0,0,52,-35,1922,596,-33,7,138,0,0,0,0,0,0,0,0,0,0,0
0,0,46,-33,1915,596,-31,5,127,0,0,0,0,0,0,0,0,0,0,0
0,0,42,-38,1916,594,-32,6,117,0,0,0,0,0,0,0,0,0,0,0
0,0,37,-33,1915,595,-30,4,117,0,0,0,0,0,0,0,0,0,0,0
0,0,45,-30,1920,596,-33,4,131,0,0,0,0,0,0,0,0,0,0,0
0,0,45,-42,1928,596,-33,5,128,0,0,0,0,0,0,0,0,0,0,0
0,0,46,-37,1923,595,-34,4,126,0,0,0,0,0,0,0,0,0,0,0
0,0,33,-33,1918,595,-32,4,114,0,0,0,0,0,0,0,0,0,0,0
0,0,39,-38,1910,597,-31,5,111,0,0,0,0,0,0,0,0,0,0,0
0,0,46,-50,1917,595,-32,5,110,0,0,0,0,0,0,0,0,0,0,0
0,0,48,-42,1921,596,-33,6,125,0,0,0,0,0,0,0,0,0,0,0
0,0,48,-38,1928,595,-31,6,137,0,0,0,0,0,0,0,0,0,0,0
0,0,46,-35,1922,597,-31,3,131,0,0,0,0,0,0,0,0,0,0,0
0,0,47,-41,1919,597,-31,5,125,0,0,0,0,0,0,0,0,0,0,0
0,0,48,-35,1919,596,-33,4,128,0,0,0,0,0,0,0,0,0,0,0
0,0,40,-36,1923,596,-34,7,125,0,0,0,0,0,0,0,0,0,0,0
0,0,47,-33,1925,598,-33,5,138,0,0,0,0,0,0,0,0,0,0,0
0,0,44,-36,1920,597,-33,4,125,0,0,0,0,0,0,0,0,0,0,0
0,0,48,-32,1922,596,-33,4,134,0,0,0,0,0,0,0,0,0,0,0
0,0,41,-41,1924,596,-32,4,121,0,0,0,0,0,0,0,0,0,0,0
0,0,36,-36,1923,597,-31,5,123,0,0,0,0,0,0,0,0,0,0,0
0,0,44,-38,1918,594,-32,3,118,0,0,0,0,0,0,0,0,0,0,0
0,0,49,-30,1903,597,-32,5,121,0,0,0,0,0,0,0,0,0,0,0
0,0,49,-37,1919,596,-35,4,125,0,0,0,0,0,0,0,0,0,0,0
0,0,50,-39,1919,595,-32,6,128,0,0,0,0,0,0,0,0,0,0,0
0,0,43,-39,1912,595,-31,5,114,0,0,0,0,0,0,0,0,0,0,0
0,0,34,-40,1925,596,-31,5,118,0,0,0,0,0,0,0,0,0,0,0
0,0,42,-36,1920,595,-32,6,124,0,0,0,0,0,0,0,0,0,0,0
0,0,45,-35,1931,595,-32,4,137,0,0,0,0,0,0,0,0,0,0,0
0,0,48,-40,1926,594,-33,5,129,0,0,0,0,0,0,0,0,0,0,0
0,0,45,-43,1933,595,-33,5,131,0,0,0,0,0,0,0,0,0,0,0
0,0,41,-36,1920,596,-33,5,122,0,0,0,0,0,0,0,0,0,0,0
0,0,50,-35,1924,596,-31,5,138,0,0,0,0,0,0,0,0,0,0,0
0,0,51,-36,1920,596,-30,4,134,0,0,0,0,0,0,0,0,0,0,0
0,0,47,-34,1924,599,-33,3,135,0,0,0,0,0,0,0,0,0,0,0
0,0,52,-35,1921,597,-31,4,137,0,0,0,0,0,0,0,0,0,0,0
0,0,45,-37,1917,597,-33,4,122,0,0,0,0,0,0,0,0,0,0,0
0,0,48,-32,1922,595,-34,2,130,0,0,0,0,0,0,0,0,0,0,0
0,0,49,-31,1921,595,-33,5,135,0,0,0,0,0,0,0,0,0,0,0
0,0,40,-38,1913,596,-33,4,111,0,0,0,0,0,0,0,0,0,0,0
0,0,35,-33,1919,594,-31,5,118,0,0,0,0,0,0,0,0,0,0,0
0,0,50,-33,1922,596,-32,5,137,0,0,0,0,0,0,0,0,0,0,0
0,0,45,-32,1917,596,-33,4,126,0,0,0,0,0,0,0,0,0,0,0
0,0,52,-26,1921,595,-33,5,143,0,0,0,0,0,0,0,0,0,0,0
0,0,42,-34,1930,596,-33,4,134,0,0,0,0,0,0,0,0,0,0,0
0,0,41,-43,1923,597,-33,6,120,0,0,0,0,0,0,0,0,0,0,0
0,0,48,-42,1921,596,-32,4,124,0,0,0,0,0,0,0,0,0,0,0
0,0,47,-35,1917,597,-33,4,126,0,0,0,0,0,0,0,0,0,0,0
0,0,45,-33,1915,597,-32,5,126,0,0,0,0,0,0,0,0,0,0,0
0,0,50,-39,1926,594,-31,5,134,0,0,0,0,0,0,0,0,0,0,0
0,0,43,-41,1916,595,-33,5,114,0,0,0,0,0,0,0,0,0,0,0
0,0,48,-41,1914,595,-33,4,116,0,0,0,0,0,0,0,0,0,0,0
0,0,49,-38,1918,596,-34,4,124,0,0,0,0,0,0,0,0,0,0,0
0,0,45,-37,1922,594,-33,4,124,0,0,0,0,0,0,0,0,0,0,0
0,0,52,-41,1920,596,-33,3,126,0,0,0,0,0,0,0,0,0,0,0
0,0,49,-35,1912,595,-32,4,122,0,0,0,0,0,0,0,0,0,0,0
0,0,45,-36,1931,594,-34,4,133,0,0,0,0,0,0,0,0,0,0,0
0,0,50,-41,1926,595,-34,4,129,0,0,0,0,0,0,0,0,0,0,0
0,0,47,-33,1920,595,-32,5,131,0,0,0,0,0,0,0,0,0,0,0
0,0,46,-33,1920,597,-31,5,133,0,0,0,0,0,0,0,0,0,0,0
0,0,50,-33,1924,596,-33,5,138,0,0,0,0,0,0,0,0,0,0,0
0,0,47,-40,1923,596,-33,3,125,0,0,0,0,0,0,0,0,0,0,0
0,0,37,-36,1922,598,-33,5,122,0,0,0,0,0,0,0,0,0,0,0
0,0,45,-35,1921,596,-32,4,128,0,0,0,0,0,0,0,0,0,0,0
0,0,50,-36,1903,596,-32,5,115,0,0,0,0,0,0,0,0,0,0,0
0,0,43,-33,1918,597,-32,5,127,0,0,0,0,0,0,0,0,0,0,0
0,0,41,-32,1933,596,-33,6,140,0,0,0,0,0,0,0,0,0,0,0
0,0,49,-30,1916,596,-32,5,133,0,0,0,0,0,0,0,0,0,0,0
0,0,43,-33,1912,596,-33,6,120,0,0,0,0,0,0,0,0,0,0,0
0,0,49,-42,1921,596,-32,6,127,0,0,0,0,0,0,0,0,0,0,0
0,0,48,-34,1913,596,-32,6,126,0,0,0,0,0,0,0,0,0,0,0
0,0,48,-37,1920,596,-31,4,129,0,0,0,0,0,0,0,0,0,0,0
0,0,47,-47,1923,597,-33,5,121,0,0,0,0,0,0,0,0,0,0,0
0,0,49,-37,1917,596,-32,5,127,0,0,0,0,0,0,0,0,0,0,0
0,0,45,-40,1913,597,-30,4,118,0,0,0,0,0,0,0,0,0,0,0
0,0,44,-40,1913,597,-31,4,116,0,0,0,0,0,0,0,0,0,0,0
0,0,49,-42,1924,595,-33,4,126,0,0,0,0,0,0,0,0,0,0,0
0,0,48,-38,1922,596,-32,4,129,0,0,0,0,0,0,0,0,0,0,0
0,0,42,-36,1919,598,-33,5,124,0,0,0,0,0,0,0,0,0,0,0
0,0,45,-41,1920,597,-34,4,120,0,0,0,0,0,0,0,0,0,0,0
0,0,42,-34,1924,596,-32,5,130,0,0,0,0,0,0,0,0,0,0,0
0,0,41,-34,1907,598,-34,5,112,0,0,0,0,0,0,0,0,0,0,0
0,0,45,-39,1917,596,-33,4,119,0,0,0,0,0,0,0,0,0,0,0
0,0,53,-35,1917,596,-31,4,133,0,0,0,0,0,0,0,0,0,0,0
0,0,44,-43,1929,596,-32,4,127,0,0,0,0,0,0,0,0,0,0,0
0,0,51,-34,1927,596,-33,6,142,0,0,0,0,0,0,0,0,0,0,0
0,0,45,-39,1921,598,-33,5,126,0,0,0,0,0,0,0,0,0,0,0
0,0,51,-34,1930,595,-33,3,141,0,0,0,0,0,0,0,0,0,0,0
0,0,47,-33,1922,597,-33,5,134,0,0,0,0,0,0,0,0,0,0,0
0,0,50,-38,1915,595,-33,3,121,0,0,0,0,0,0,0,0,0,0,0
0,0,50,-45,1916,595,-32,4,117,0,0,0,0,0,0,0,0,0,0,0
0,0,47,-40,1925,596,-32,5,130,0,0,0,0,0,0,0,0,0,0,0
0,0,42,-36,1920,596,-31,5,125,0,0,0,0,0,0,0,0,0,0,0
0,0,42,-37,1915,597,-31,5,120,0,0,0,0,0,0,0,0,0,0,0
0,0,39,-37,1921,598,-31,5,124,0,0,0,0,0,0,0,0,0,0,0
0,0,51,-40,1921,594,-32,6,129,0,0,0,0,0,0,0,0,0,0,0
0,0,48,-31,1924,593,-32,4,135,0,0,0,0,0,0,0,0,0,0,0
0,0,52,-42,1921,596,-32,5,129,0,0,0,0,0,0,0,0,0,0,0
0,0,42,-42,1914,595,-34,5,109,0,0,0,0,0,0,0,0,0,0,0
0,0,51,-43,1911,597,-32,4,117,0,0,0,0,0,0,0,0,0,0,0
0,0,37,-40,1913,596,-32,5,108,0,0,0,0,0,0,0,0,0,0,0
0,0,47,-43,1915,595,-31,6,118,0,0,0,0,0,0,0,0,0,0,0
0,0,52,-42,1922,595,-33,4,127,0,0,0,0,0,0,0,0,0,0,0
0,0,40,-37,1929,597,-33,5,130,0,0,0,0,0,0,0,0,0,0,0
0,0,55,-35,1922,596,-32,6,141,0,0,0,0,0,0,0,0,0,0,0
0,0,48,-37,1928,594,-32,5,135,0,0,0,0,0,0,0,0,0,0,0
0,0,52,-38,1931,596,-32,4,142,0,0,0,0,0,0,0,0,0,0,0
0,0,44,-37,1918,597,-32,4,123,0,0,0,0,0,0,0,0,0,0,0
0,0,44,-36,1917,596,-33,6,123,0,0,0,0,0,0,0,0,0,0,0
0,0,50,-30,1925,598,-32,5,145,0,0,0,0,0,0,0,0,0,0,0
0,0,49,-37,1923,596,-32,6,134,0,0,0,0,0,0,0,0,0,0,0
0,0,45,-39,1917,596,-31,5,122,0,0,0,0,0,0,0,0,0,0,0
0,0,44,-42,1919,596,-31,6,121,0,0,0,0,0,0,0,0,0,0,0
0,0,48,-36,1910,596,-31,4,120,0,0,0,0,0,0,0,0,0,0,0
0,0,39,-38,1906,595,-32,4,103,0,0,0,0,0,0,0,0,0,0,0
0,0,44,-31,1924,596,-33,4,133,0,0,0,0,0,0,0,0,0,0,0
0,0,41,-38,1917,596,-34,6,117,0,0,0,0,0,0,0,0,0,0,0
0,0,46,-36,1916,596,-32,5,124,0,0,0,0,0,0,0,0,0,0,0
0,0,45,-32,1914,597,-32,5,126,0,0,0,0,0,0,0,0,0,0,0
0,0,53,-36,1930,597,-33,3,143,0,0,0,0,0,0,0,0,0,0,0
0,0,48,-45,1936,596,-32,4,136,0,0,0,0,0,0,0,0,0,0,0
0,0,44,-36,1918,595,-33,4,121,0,0,0,0,0,0,0,0,0,0,0
0,0,51,-39,1920,595,-31,5,130,0,0,0,0,0,0,0,0,0,0,0
0,0,44,-35,1921,596,-32,5,128,0,0,0,0,0,0,0,0,0,0,0
0,0,50,-32,1924,597,-33,4,139,0,0,0,0,0,0,0,0,0,0,0
0,0,46,-36,1917,596,-33,4,123,0,0,0,0,0,0,0,0,0,0,0
0,0,42,-42,1921,596,-30,6,122,0,0,0,0,0,0,0,0,0,0,0
0,0,47,-37,1912,597,-31,4,121,0,0,0,0,0,0,0,0,0,0,0
0,0,43,-37,1930,595,-31,5,134,0,0,0,0,0,0,0,0,0,0,0
0,0,42,-40,1924,595,-33,4,121,0,0,0,0,0,0,0,0,0,0,0
0,0,44,-36,1923,595,-30,4,129,0,0,0,0,0,0,0,0,0,0,0
0,0,44,-33,1924,597,-32,5,134,0,0,0,0,0,0,0,0,0,0,0
0,0,44,-32,1929,595,-31,5,139,0,0,0,0,0,0,0,0,0,0,0
0,0,44,-38,1926,594,-31,5,129,0,0,0,0,0,0,0,0,0,0,0
0,0,47,-34,1923,596,-33,6,134,0,0,0,0,0,0,0,0,0,0,0
0,0,42,-34,1931,596,-33,5,136,0,0,0,0,0,0,0,0,0,0,0
0,0,44,-33,1922,596,-31,6,133,0,0,0,0,0,0,0,0,0,0,0
0,0,49,-36,1911,597,-34,2,118,0,0,0,0,0,0,0,0,0,0,0
0,0,44,-29,1925,597,-32,4,138,0,0,0,0,0,0,0,0,0,0,0
0,0,42,-39,1917,596,-31,4,118,0,0,0,0,0,0,0,0,0,0,0
0,0,45,-32,1922,596,-33,4,131,0,0,0,0,0,0,0,0,0,0,0
0,0,41,-42,1920,595,-33,5,115,0,0,0,0,0,0,0,0,0,0,0
0,0,48,-36,1921,596,-33,5,130,0,0,0,0,0,0,0,0,0,0,0
0,0,43,-33,1923,597,-33,4,130,0,0,0,0,0,0,0,0,0,0,0
0,0,47,-31,1930,597,-34,5,143,0,0,0,0,0,0,0,0,0,0,0
0,0,51,-38,1926,595,-33,5,135,0,0,0,0,0,0,0,0,0,0,0
0,0,44,-40,1923,597,-32,4,125,0,0,0,0,0,0,0,0,0,0,0
0,0,52,-43,1917,596,-33,5,123,0,0,0,0,0,0,0,0,0,0,0
0,0,47,-29,1911,596,-32,6,128,0,0,0,0,0,0,0,0,0,0,0
0,0,49,-36,1918,595,-32,4,127,0,0,0,0,0,0,0,0,0,0,0
0,0,38,-40,1919,596,-33,4,113,0,0,0,0,0,0,0,0,0,0,0
0,0,53,-43,1908,594,-32,6,115,0,0,0,0,0,0,0,0,0,0,0
0,0,49,-37,1915,595,-30,3,124,0,0,0,0,0,0,0,0,0,0,0
0,0,48,-41,1917,595,-32,4,120,0,0,0,0,0,0,0,0,0,0,0
0,0,54,-35,1919,595,-32,4,134,0,0,0,0,0,0,0,0,0,0,0
0,0,48,-39,1926,596,-32,4,132,0,0,0,0,0,0,0,0,0,0,0
0,0,46,-34,1931,597,-32,5,142,0,0,0,0,0,0,0,0,0,0,0
0,0,51,-47,1915,595,-31,6,118,0,0,0,0,0,0,0,0,0,0,0
0,0,40,-46,1916,594,-31,5,107,0,0,0,0,0,0,0,0,0,0,0
0,0,41,-33,1915,596,-32,5,121,0,0,0,0,0,0,0,0,0,0,0
0,0,50,-39,1927,595,-31,4,135,0,0,0,0,0,0,0,0,0,0,0
0,0,49,-42,1926,596,-32,5,131,0,0,0,0,0,0,0,0,0,0,0
0,0,45,-40,1917,596,-33,4,118,0,0,0,0,0,0,0,0,0,0,0
0,0,41,-39,1914,595,-32,5,113,0,0,0,0,0,0,0,0,0,0,0
0,0,43,-34,1912,596,-31,4,119,0,0,0,0,0,0,0,0,0,0,0
0,0,48,-39,1921,597,-32,6,130,0,0,0,0,0,0,0,0,0,0,0
0,0,48,-36,1927,596,-32,5,137,0,0,0,0,0,0,0,0,0,0,0
0,0,42,-28,1930,596,-32,4,141,0,0,0,0,0,0,0,0,0,0,0
0,0,48,-35,1918,596,-32,4,128,0,0,0,0,0,0,0,0,0,0,0
0,0,42,-39,1916,596,-31,7,120,0,0,0,0,0,0,0,0,0,0,0
0,0,38,-44,1914,594,-31,5,105,0,0,0,0,0,0,0,0,0,0,0
0,0,48,-39,1921,595,-31,3,126,0,0,0,0,0,0,0,0,0,0,0
0,0,59,-35,1918,595,-31,4,139,0,0,0,0,0,0,0,0,0,0,0
0,0,46,-34,1927,597,-33,6,138,0,0,0,0,0,0,0,0,0,0,0
0,0,46,-44,1921,597,-33,7,123,0,0,0,0,0,0,0,0,0,0,0
0,0,45,-36,1914,597,-33,5,121,0,0,0,0,0,0,0,0,0,0,0
0,0,44,-34,1920,597,-32,5,129,0,0,0,0,0,0,0,0,0,0,0
0,0,44,-45,1922,596,-32,4,118,0,0,0,0,0,0,0,0,0,0,0
0,0,51,-35,1921,595,-32,5,134,0,0,0,0,0,0,0,0,0,0,0
0,0,45,-41,1923,595,-31,5,125,0,0,0,0,0,0,0,0,0,0,0
0,0,55,-36,1924,595,-32,4,139,0,0,0,0,0,0,0,0,0,0,0
0,0,44,-34,1919,596,-31,3,126,0,0,0,0,0,0,0,0,0,0,0
0,0,54,-41,1921,597,-33,4,131,0,0,0,0,0,0,0,0,0,0,0
0,0,53,-33,1923,594,-33,5,138,0,0,0,0,0,0,0,0,0,0,0
0,0,40,-33,1923,595,-34,4,124,0,0,0,0,0,0,0,0,0,0,0
0,0,46,-29,1915,595,-33,4,127,0,0,0,0,0,0,0,0,0,0,0
0,0,44,-33,1914,597,-33,4,122,0,0,0,0,0,0,0,0,0,0,0
0,0,44,-25,1917,597,-31,4,135,0,0,0,0,0,0,0,0,0,0,0
0,0,47,-38,1922,597,-31,7,133,0,0,0,0,0,0,0,0,0,0,0
0,0,51,-38,1928,595,-32,2,135,0,0,0,0,0,0,0,0,0,0,0
0,0,43,-40,1925,596,-33,4,124,0,0,0,0,0,0,0,0,0,0,0
0,0,43,-40,1914,596,-33,3,112,0,0,0,0,0,0,0,0,0,0,0
0,0,43,-40,1927,596,-31,4,128,0,0,0,0,0,0,0,0,0,0,0
0,0,49,-36,1904,595,-31,5,115,0,0,0,0,0,0,0,0,0,0,0
0,0,51,-31,1928,598,-33,5,147,0,0,0,0,0,0,0,0,0,0,0
0,0,53,-36,1925,596,-33,4,138,0,0,0,0,0,0,0,0,0,0,0
0,0,54,-36,1917,595,-34,3,128,0,0,0,0,0,0,0,0,0,0,0
0,0,47,-40,1915,597,-31,3,120,0,0,0,0,0,0,0,0,0,0,0
0,0,47,-40,1923,596,-31,5,129,0,0,0,0,0,0,0,0,0,0,0
0,0,52,-36,1911,594,-31,6,125,0,0,0,0,0,0,0,0,0,0,0
0,0,51,-32,1912,596,-31,6,131,0,0,0,0,0,0,0,0,0,0,0
0,0,50,-31,1916,597,-31,4,134,0,0,0,0,0,0,0,0,0,0,0
0,0,44,-31,1918,596,-32,5,129,0,0,0,0,0,0,0,0,0,0,0
0,0,38,-31,1925,597,-33,3,128,0,0,0,0,0,0,0,0,0,0,0
0,0,49,-39,1924,597,-32,5,133,0,0,0,0,0,0,0,0,0,0,0
0,0,44,-39,1925,596,-33,6,128,0,0,0,0,0,0,0,0,0,0,0
0,0,49,-39,1925,595,-33,6,132,0,0,0,0,0,0,0,0,0,0,0
0,0,44,-40,1929,596,-34,7,131,0,0,0,0,0,0,0,0,0,0,0
0,0,42,-36,1918,595,-32,4,120,0,0,0,0,0,0,0,0,0,0,0
0,0,48,-42,1917,597,-34,4,119,0,0,0,0,0,0,0,0,0,0,0
0,0,49,-46,1922,597,-32,4,123,0,0,0,0,0,0,0,0,0,0,0
0,0,42,-44,1911,597,-32,3,106,0,0,0,0,0,0,0,0,0,0,0
0,0,52,-36,1930,595,-31,4,143,0,0,0,0,0,0,0,0,0,0,0
0,0,48,-34,1917,596,-31,5,130,0,0,0,0,0,0,0,0,0,0,0
0,0,41,-30,1926,596,-32,6,136,0,0,0,0,0,0,0,0,0,0,0
0,0,48,-35,1926,595,-32,5,136,0,0,0,0,0,0,0,0,0,0,0
0,0,49,-31,1922,595,-31,5,138,0,0,0,0,0,0,0,0,0,0,0
0,0,40,-36,1924,597,-32,4,126,0,0,0,0,0,0,0,0,0,0,0
0,0,39,-37,1916,596,-33,6,116,0,0,0,0,0,0,0,0,0,0,0
0,0,46,-32,1913,596,-32,5,125,0,0,0,0,0,0,0,0,0,0,0
0,0,46,-37,1923,595,-32,4,128,0,0,0,0,0,0,0,0,0,0,0
0,0,44,-40,1924,596,-31,4,126,0,0,0,0,0,0,0,0,0,0,0
0,0,47,-31,1932,593,-34,4,140,0,0,0,0,0,0,0,0,0,0,0
0,0,44,-32,1915,596,-33,3,122,0,0,0,0,0,0,0,0,0,0,0
0,0,51,-36,1917,596,-33,3,127,0,0,0,0,0,0,0,0,0,0,0
0,0,42,-47,1917,595,-31,8,113,0,0,0,0,0,0,0,0,0,0,0
0,0,51,-38,1924,596,-32,3,133,0,0,0,0,0,0,0,0,0,0,0
0,0,47,-39,1908,595,-32,4,112,0,0,0,0,0,0,0,0,0,0,0
0,0,45,-33,1913,597,-30,4,125,0,0,0,0,0,0,0,0,0,0,0
0,0,44,-33,1930,597,-33,4,138,0,0,0,0,0,0,0,0,0,0,0
0,0,47,-33,1919,596,-33,4,129,0,0,0,0,0,0,0,0,0,0,0
0,0,45,-39,1924,594,-31,6,128,0,0,0,0,0,0,0,0,0,0,0
0,0,56,-37,1928,595,-31,5,145,0,0,0,0,0,0,0,0,0,0,0
0,0,48,-29,1911,595,-33,3,124,0,0,0,0,0,0,0,0,0,0,0
0,0,47,-38,1926,595,-30,5,134,0,0,0,0,0,0,0,0,0,0,0
0,0,42,-40,1928,597,-31,5,130,0,0,0,0,0,0,0,0,0,0,0
0,0,47,-35,1916,597,-34,4,124,0,0,0,0,0,0,0,0,0,0,0
0,0,45,-38,1922,597,-32,5,128,0,0,0,0,0,0,0,0,0,0,0
0,0,45,-36,1922,596,-33,6,129,0,0,0,0,0,0,0,0,0,0,0
0,0,45,-39,1923,596,-33,6,127,0,0,0,0,0,0,0,0,0,0,0
0,0,47,-39,1926,597,-31,4,133,0,0,0,0,0,0,0,0,0,0,0
0,0,46,-48,1928,597,-32,5,125,0,0,0,0,0,0,0,0,0,0,0
0,0,44,-44,1913,596,-32,4,110,0,0,0,0,0,0,0,0,0,0,0
0,0,46,-44,1912,595,-32,4,110,0,0,0,0,0,0,0,0,0,0,0
0,0,40,-29,1920,596,-32,3,127,0,0,0,0,0,0,0,0,0,0,0
0,0,42,-40,1920,596,-32,4,119,0,0,0,0,0,0,0,0,0,0,0
0,0,43,-33,1931,595,-33,4,136,0,0,0,0,0,0,0,0,0,0,0
0,0,43,-34,1925,597,-31,5,134,0,0,0,0,0,0,0,0,0,0,0
0,0,41,-37,1906,596,-32,5,108,0,0,0,0,0,0,0,0,0,0,0
0,0,49,-40,1923,596,-32,6,131,0,0,0,0,0,0,0,0,0,0,0
0,0,48,-35,1918,596,-33,4,127,0,0,0,0,0,0,0,0,0,0,0
0,0,47,-46,1932,597,-33,5,131,0,0,0,0,0,0,0,0,0,0,0
0,0,52,-37,1924,595,-33,4,134,0,0,0,0,0,0,0,0,0,0,0
0,0,48,-37,1919,596,-31,5,129,0,0,0,0,0,0,0,0,0,0,0
0,0,49,-29,1912,597,-33,4,129,0,0,0,0,0,0,0,0,0,0,0
0,0,51,-36,1921,596,-32,4,133,0,0,0,0,0,0,0,0,0,0,0
0,0,39,-37,1923,596,-33,5,122,0,0,0,0,0,0,0,0,0,0,0
0,0,40,-34,1923,597,-32,5,128,0,0,0,0,0,0,0,0,0,0,0
0,0,38,-46,1921,596,-34,4,108,0,0,0,0,0,0,0,0,0,0,0
0,0,41,-30,1914,597,-34,6,123,0,0,0,0,0,0,0,0,0,0,0
0,0,48,-36,1930,596,-33,5,139,0,0,0,0,0,0,0,0,0,0,0
0,0,47,-32,1929,596,-35,6,140,0,0,0,0,0,0,0,0,0,0,0
0,0,45,-37,1933,596,-33,3,136,0,0,0,0,0,0,0,0,0,0,0
0,0,49,-36,1923,598,-31,5,137,0,0,0,0,0,0,0,0,0,0,0
0,0,49,-36,1927,594,-32,5,136,0,0,0,0,0,0,0,0,0,0,0
0,0,45,-41,1912,596,-29,7,119,0,0,0,0,0,0,0,0,0,0,0
0,0,44,-30,1913,597,-33,5,125,0,0,0,0,0,0,0,0,0,0,0
0,0,43,-45,1930,597,-32,4,126,0,0,0,0,0,0,0,0,0,0,0
0,0,40,-38,1905,597,-32,4,105,0,0,0,0,0,0,0,0,0,0,0
0,0,48,-35,1917,595,-29,5,130,0,0,0,0,0,0,0,0,0,0,0
0,0,40,-34,1916,597,-33,4,119,0,0,0,0,0,0,0,0,0,0,0
0,0,53,-30,1909,596,-31,6,132,0,0,0,0,0,0,0,0,0,0,0
0,0,51,-35,1912,597,-31,5,128,0,0,0,0,0,0,0,0,0,0,0
0,0,40,-38,1914,596,-31,4,114,0,0,0,0,0,0,0,0,0,0,0
0,0,47,-35,1926,596,-31,4,136,0,0,0,0,0,0,0,0,0,0,0
0,0,45,-39,1913,596,-30,5,119,0,0,0,0,0,0,0,0,0,0,0
0,0,51,-35,1916,595,-31,5,130,0,0,0,0,0,0,0,0,0,0,0
0,0,50,-34,1922,597,-32,4,136,0,0,0,0,0,0,0,0,0,0,0
0,0,41,-40,1927,594,-31,3,123,0,0,0,0,0,0,0,0,0,0,0
0,0,42,-40,1913,596,-33,6,113,0,0,0,0,0,0,0,0,0,0,0
0,0,43,-36,1919,595,-33,4,121,0,0,0,0,0,0,0,0,0,0,0
0,0,38,-35,1916,597,-33,5,117,0,0,0,0,0,0,0,0,0,0,0
0,0,48,-29,1918,598,-33,6,137,0,0,0,0,0,0,0,0,0,0,0
0,0,49,-28,1916,596,-31,6,137,0,0,0,0,0,0,0,0,0,0,0
0,0,46,-34,1927,596,-33,4,135,0,0,0,0,0,0,0,0,0,0,0
0,0,46,-34,1919,597,-31,5,131,0,0,0,0,0,0,0,0,0,0,0
0,0,44,-37,1917,595,-31,3,120,0,0,0,0,0,0,0,0,0,0,0
0,0,49,-36,1923,594,-33,3,129,0,0,0,0,0,0,0,0,0,0,0
0,0,46,-36,1921,596,-31,6,131,0,0,0,0,0,0,0,0,0,0,0
0,0,51,-39,1926,597,-31,5,138,0,0,0,0,0,0,0,0,0,0,0
0,0,46,-33,1921,594,-32,6,131,0,0,0,0,0,0,0,0,0,0,0
0,0,47,-39,1927,596,-33,6,133,0,0,0,0,0,0,0,0,0,0,0
0,0,43,-38,1917,596,-32,5,120,0,0,0,0,0,0,0,0,0,0,0
0,0,43,-40,1921,595,-32,6,122,0,0,0,0,0,0,0,0,0,0,0
0,0,45,-36,1925,595,-33,4,129,0,0,0,0,0,0,0,0,0,0,0
0,0,52,-43,1920,594,-32,3,123,0,0,0,0,0,0,0,0,0,0,0
0,0,45,-40,1918,597,-31,5,123,0,0,0,0,0,0,0,0,0,0,0
0,0,43,-39,1922,597,-31,6,127,0,0,0,0,0,0,0,0,0,0,0
0,0,47,-37,1918,594,-34,6,123,0,0,0,0,0,0,0,0,0,0,0
0,0,45,-39,1922,595,-34,5,123,0,0,0,0,0,0,0,0,0,0,0
0,0,48,-38,1931,596,-33,6,139,0,0,0,0,0,0,0,0,0,0,0
0,0,38,-37,1918,595,-33,5,115,0,0,0,0,0,0,0,0,0,0,0
0,0,40,-38,1926,595,-32,4,124,0,0,0,0,0,0,0,0,0,0,0
0,0,41,-39,1927,596,-33,6,127,0,0,0,0,0,0,0,0,0,0,0
0,0,43,-43,1923,596,-32,6,122,0,0,0,0,0,0,0,0,0,0,0
0,0,46,-39,1921,595,-32,5,125,0,0,0,0,0,0,0,0,0,0,0
0,0,52,-37,1924,597,-33,5,137,0,0,0,0,0,0,0,0,0,0,0
0,0,48,-42,1927,595,-34,5,128,0,0,0,0,0,0,0,0,0,0,0
0,0,49,-35,1932,596,-33,4,142,0,0,0,0,0,0,0,0,0,0,0
0,0,31,-42,1920,597,-33,4,106,0,0,0,0,0,0,0,0,0,0,0
0,0,42,-34,1919,596,-33,3,122,0,0,0,0,0,0,0,0,0,0,0
0,0,43,-37,1924,595,-32,2,124,0,0,0,0,0,0,0,0,0,0,0
0,0,38,-34,1919,597,-33,3,119,0,0,0,0,0,0,0,0,0,0,0
0,0,44,-35,1920,596,-32,4,126,0,0,0,0,0,0,0,0,0,0,0
0,0,48,-43,1919,597,-33,6,123,0,0,0,0,0,0,0,0,0,0,0
0,0,43,-31,1923,597,-33,4,132,0,0,0,0,0,0,0,0,0,0,0
0,0,44,-38,1920,596,-32,5,124,0,0,0,0,0,0,0,0,0,0,0
0,0,42,-33,1919,595,-32,5,125,0,0,0,0,0,0,0,0,0,0,0
0,0,46,-44,1922,595,-33,6,121,0,0,0,0,0,0,0,0,0,0,0
0,0,47,-36,1922,597,-33,5,131,0,0,0,0,0,0,0,0,0,0,0
0,0,51,-42,1918,596,-32,3,123,0,0,0,0,0,0,0,0,0,0,0
0,0,44,-41,1914,594,-33,4,111,0,0,0,0,0,0,0,0,0,0,0
0,0,47,-39,1915,598,-32,4,122,0,0,0,0,0,0,0,0,0,0,0
0,0,42,-39,1928,597,-31,2,128,0,0,0,0,0,0,0,0,0,0,0
0,0,44,-31,1927,596,-32,4,137,0,0,0,0,0,0,0,0,0,0,0
0,0,45,-40,1915,596,-32,5,118,0,0,0,0,0,0,0,0,0,0,0
0,0,47,-33,1922,597,-32,5,135,0,0,0,0,0,0,0,0,0,0,0
0,0,47,-26,1924,594,-31,5,142,0,0,0,0,0,0,0,0,0,0,0
0,0,48,-37,1921,595,-32,4,128,0,0,0,0,0,0,0,0,0,0,0
0,0,45,-29,1927,597,-32,6,143,0,0,0,0,0,0,0,0,0,0,0
0,0,43,-32,1921,598,-32,5,132,0,0,0,0,0,0,0,0,0,0,0
0,0,49,-28,1920,597,-34,4,137,0,0,0,0,0,0,0,0,0,0,0
0,0,43,-39,1926,597,-32,3,127,0,0,0,0,0,0,0,0,0,0,0
0,0,47,-35,1925,595,-32,5,134,0,0,0,0,0,0,0,0,0,0,0
0,0,45,-30,1921,595,-31,4,133,0,0,0,0,0,0,0,0,0,0,0
0,0,43,-37,1920,596,-31,4,124,0,0,0,0,0,0,0,0,0,0,0
0,0,48,-39,1919,597,-32,4,126,0,0,0,0,0,0,0,0,0,0,0
0,0,50,-36,1921,596,-32,5,133,0,0,0,0,0,0,0,0,0,0,0
0,0,46,-38,1907,594,-32,4,110,0,0,0,0,0,0,0,0,0,0,0
0,0,43,-40,1920,595,-32,5,120,0,0,0,0,0,0,0,0,0,0,0
0,0,48,-34,1921,595,-31,5,133,0,0,0,0,0,0,0,0,0,0,0
0,0,47,-32,1917,596,-32,6,131,0,0,0,0,0,0,0,0,0,0,0
0,0,46,-28,1924,596,-33,6,140,0,0,0,0,0,0,0,0,0,0,0
0,0,49,-32,1914,594,-32,4,126,0,0,0,0,0,0,0,0,0,0,0
0,0,48,-40,1923,595,-32,5,128,0,0,0,0,0,0,0,0,0,0,0
0,0,47,-39,1927,594,-33,6,131,0,0,0,0,0,0,0,0,0,0,0
0,0,48,-36,1911,597,-32,6,123,0,0,0,0,0,0,0,0,0,0,0
0,0,47,-41,1928,596,-32,4,131,0,0,0,0,0,0,0,0,0,0,0
0,0,37,-40,1923,598,-31,5,121,0,0,0,0,0,0,0,0,0,0,0
0,0,51,-38,1926,595,-33,6,136,0,0,0,0,0,0,0,0,0,0,0
0,0,53,-35,1922,597,-33,6,139,0,0,0,0,0,0,0,0,0,0,0
0,0,40,-42,1922,595,-31,5,118,0,0,0,0,0,0,0,0,0,0,0
0,0,47,-37,1912,595,-31,4,119,0,0,0,0,0,0,0,0,0,0,0
0,0,42,-35,1927,596,-31,4,132,0,0,0,0,0,0,0,0,0,0,0
0,0,44,-39,1914,595,-31,4,116,0,0,0,0,0,0,0,0,0,0,0
0,0,45,-30,1924,596,-32,5,137,0,0,0,0,0,0,0,0,0,0,0
0,0,50,-33,1928,597,-31,5,145,0,0,0,0,0,0,0,0,0,0,0
0,0,48,-33,1929,597,-33,6,143,0,0,0,0,0,0,0,0,0,0,0
0,0,44,-36,1919,595,-31,5,125,0,0,0,0,0,0,0,0,0,0,0
0,0,49,-36,1918,596,-33,5,128,0,0,0,0,0,0,0,0,0,0,0
0,0,53,-28,1922,598,-32,5,147,0,0,0,0,0,0,0,0,0,0,0
0,0,46,-40,1920,596,-32,5,124,0,0,0,0,0,0,0,0,0,0,0
0,0,41,-35,1928,596,-32,5,132,0,0,0,0,0,0,0,0,0,0,0
0,0,43,-35,1917,596,-31,4,123,0,0,0,0,0,0,0,0,0,0,0
0,0,39,-29,1919,595,-32,4,125,0,0,0,0,0,0,0,0,0,0,0
0,0,40,-36,1911,596,-33,4,111,0,0,0,0,0,0,0,0,0,0,0
0,0,42,-38,1911,597,-32,5,114,0,0,0,0,0,0,0,0,0,0,0
0,0,44,-34,1918,596,-32,5,126,0,0,0,0,0,0,0,0,0,0,0
0,0,50,-36,1923,596,-32,6,136,0,0,0,0,0,0,0,0,0,0,0
0,0,44,-44,1925,596,-32,4,122,0,0,0,0,0,0,0,0,0,0,0
0,0,47,-43,1922,596,-32,3,122,0,0,0,0,0,0,0,0,0,0,0
0,0,48,-37,1920,595,-32,4,127,0,0,0,0,0,0,0,0,0,0,0
0,0,53,-35,1924,596,-32,6,141,0,0,0,0,0,0,0,0,0,0,0
0,0,48,-33,1913,596,-33,6,126,0,0,0,0,0,0,0,0,0,0,0
0,0,48,-33,1914,597,-33,5,127,0,0,0,0,0,0,0,0,0,0,0
0,0,45,-39,1926,597,-33,4,129,0,0,0,0,0,0,0,0,0,0,0
0,0,45,-36,1923,595,-33,4,127,0,0,0,0,0,0,0,0,0,0,0
0,0,45,-44,1925,596,-33,3,121,0,0,0,0,0,0,0,0,0,0,0
0,0,47,-36,1926,596,-30,5,137,0,0,0,0,0,0,0,0,0,0,0
0,0,45,-36,1915,597,-32,4,122,0,0,0,0,0,0,0,0,0,0,0
0,0,48,-43,1924,596,-32,2,124,0,0,0,0,0,0,0,0,0,0,0
0,0,51,-35,1929,598,-32,3,143,0,0,0,0,0,0,0,0,0,0,0
0,0,45,-42,1918,597,-32,4,119,0,0,0,0,0,0,0,0,0,0,0
0,0,47,-36,1921,597,-33,4,129,0,0,0,0,0,0,0,0,0,0,0
0,0,53,-35,1917,596,-30,3,133,0,0,0,0,0,0,0,0,0,0,0
0,0,42,-40,1920,595,-32,3,117,0,0,0,0,0,0,0,0,0,0,0
0,0,49,-31,1927,596,-30,3,143,0,0,0,0,0,0,0,0,0,0,0
0,0,46,-33,1922,596,-31,4,133,0,0,0,0,0,0,0,0,0,0,0
0,0,49,-39,1921,597,-31,5,131,0,0,0,0,0,0,0,0,0,0,0
0,0,49,-35,1913,594,-33,5,122,0,0,0,0,0,0,0,0,0,0,0
0,0,46,-40,1923,595,-33,4,124,0,0,0,0,0,0,0,0,0,0,0
0,0,43,-32,1908,596,-32,5,117,0,0,0,0,0,0,0,0,0,0,0
0,0,37,-37,1919,597,-32,6,119,0,0,0,0,0,0,0,0,0,0,0
0,0,48,-37,1920,596,-33,6,129,0,0,0,0,0,0,0,0,0,0,0
0,0,50,-37,1908,597,-33,3,117,0,0,0,0,0,0,0,0,0,0,0
0,0,43,-29,1915,597,-32,4,127,0,0,0,0,0,0,0,0,0,0,0
0,0,48,-35,1926,598,-32,2,136,0,0,0,0,0,0,0,0,0,0,0
0,0,57,-34,1925,597,-33,5,146,0,0,0,0,0,0,0,0,0,0,0
0,0,47,-33,1920,598,-31,5,135,0,0,0,0,0,0,0,0,0,0,0
0,0,45,-33,1916,597,-31,6,129,0,0,0,0,0,0,0,0,0,0,0
0,0,52,-34,1929,597,-33,5,145,0,0,0,0,0,0,0,0,0,0,0
0,0,50,-44,1923,595,-32,6,127,0,0,0,0,0,0,0,0,0,0,0
0,0,45,-34,1920,596,-32,4,128,0,0,0,0,0,0,0,0,0,0,0
0,0,50,-35,1915,598,-33,3,127,0,0,0,0,0,0,0,0,0,0,0
0,0,54,-39,1916,597,-32,5,130,0,0,0,0,0,0,0,0,0,0,0
0,0,46,-42,1909,597,-32,5,112,0,0,0,0,0,0,0,0,0,0,0
0,0,50,-36,1920,596,-34,4,129,0,0,0,0,0,0,0,0,0,0,0
0,0,49,-32,1912,596,-34,4,124,0,0,0,0,0,0,0,0,0,0,0
0,0,52,-37,1934,597,-33,4,146,0,0,0,0,0,0,0,0,0,0,0
0,0,44,-35,1923,597,-33,6,131,0,0,0,0,0,0,0,0,0,0,0
0,0,53,-29,1913,595,-32,6,135,0,0,0,0,0,0,0,0,0,0,0
0,0,43,-39,1919,595,-31,5,121,0,0,0,0,0,0,0,0,0,0,0
0,0,39,-38,1919,597,-30,6,122,0,0,0,0,0,0,0,0,0,0,0
0,0,37,-35,1927,598,-32,4,128,0,0,0,0,0,0,0,0,0,0,0
0,0,49,-42,1915,596,-32,3,118,0,0,0,0,0,0,0,0,0,0,0
0,0,42,-38,1923,596,-33,5,124,0,0,0,0,0,0,0,0,0,0,0
0,0,46,-35,1909,594,-32,4,115,0,0,0,0,0,0,0,0,0,0,0
0,0,37,-34,1915,596,-32,4,115,0,0,0,0,0,0,0,0,0,0,0
0,0,42,-31,1918,597,-32,3,126,0,0,0,0,0,0,0,0,0,0,0
0,0,40,-38,1918,595,-31,2,115,0,0,0,0,0,0,0,0,0,0,0
0,0,45,-34,1921,597,-31,5,132,0,0,0,0,0,0,0,0,0,0,0
0,0,49,-35,1918,596,-31,4,130,0,0,0,0,0,0,0,0,0,0,0
0,0,59,-38,1922,597,-31,4,142,0,0,0,0,0,0,0,0,0,0,0
0,0,45,-36,1923,595,-32,5,129,0,0,0,0,0,0,0,0,0,0,0
0,0,47,-36,1914,596,-33,3,120,0,0,0,0,0,0,0,0,0,0,0
0,0,44,-42,1922,596,-31,5,123,0,0,0,0,0,0,0,0,0,0,0
0,0,46,-32,1935,597,-32,5,148,0,0,0,0,0,0,0,0,0,0,0
0,0,54,-35,1924,597,-33,6,142,0,0,0,0,0,0,0,0,0,0,0
0,0,47,-35,1916,597,-31,5,128,0,0,0,0,0,0,0,0,0,0,0
0,0,48,-45,1912,597,-30,4,115,0,0,0,0,0,0,0,0,0,0,0
0,0,52,-39,1911,596,-32,6,123,0,0,0,0,0,0,0,0,0,0,0
0,0,45,-37,1929,596,-30,4,136,0,0,0,0,0,0,0,0,0,0,0
0,0,48,-37,1929,597,-31,4,139,0,0,0,0,0,0,0,0,0,0,0
0,0,46,-36,1924,596,-33,4,130,0,0,0,0,0,0,0,0,0,0,0
0,0,52,-29,1916,596,-32,4,136,0,0,0,0,0,0,0,0,0,0,0
0,0,42,-33,1912,598,-32,6,122,0,0,0,0,0,0,0,0,0,0,0
0,0,42,-28,1920,597,-33,6,133,0,0,0,0,0,0,0,0,0,0,0
0,0,51,-39,1924,596,-34,5,132,0,0,0,0,0,0,0,0,0,0,0
0,0,45,-35,1914,596,-34,4,119,0,0,0,0,0,0,0,0,0,0,0
0,0,43,-37,1921,595,-32,5,124,0,0,0,0,0,0,0,0,0,0,0
0,0,49,-38,1926,597,-31,4,136,0,0,0,0,0,0,0,0,0,0,0
0,0,45,-39,1920,597,-32,3,123,0,0,0,0,0,0,0,0,0,0,0
0,0,47,-43,1909,595,-32,4,109,0,0,0,0,0,0,0,0,0,0,0
0,0,47,-35,1916,597,-33,6,127,0,0,0,0,0,0,0,0,0,0,0
0,0,33,-37,1933,597,-30,6,131,0,0,0,0,0,0,0,0,0,0,0
0,0,52,-32,1922,597,-31,6,143,0,0,0,0,0,0,0,0,0,0,0
0,0,52,-27,1928,596,-32,5,151,0,0,0,0,0,0,0,0,0,0,0
0,0,42,-32,1923,596,-32,4,130,0,0,0,0,0,0,0,0,0,0,0
0,0,41,-42,1921,596,-31,4,118,0,0,0,0,0,0,0,0,0,0,0
0,0,43,-38,1926,597,-32,3,128,0,0,0,0,0,0,0,0,0,0,0
0,0,46,-35,1918,595,-32,3,124,0,0,0,0,0,0,0,0,0,0,0
0,0,45,-35,1918,598,-35,4,124,0,0,0,0,0,0,0,0,0,0,0
0,0,42,-30,1909,597,-33,4,118,0,0,0,0,0,0,0,0,0,0,0
0,0,45,-37,1919,596,-33,5,124,0,0,0,0,0,0,0,0,0,0,0
0,0,48,-37,1926,598,-34,6,136,0,0,0,0,0,0,0,0,0,0,0
0,0,49,-34,1917,597,-31,6,133,0,0,0,0,0,0,0,0,0,0,0
0,0,43,-36,1918,597,-32,4,123,0,0,0,0,0,0,0,0,0,0,0
0,0,45,-32,1918,597,-31,4,130,0,0,0,0,0,0,0,0,0,0,0
0,0,48,-40,1916,595,-32,4,120,0,0,0,0,0,0,0,0,0,0,0
0,0,49,-39,1918,596,-33,4,124,0,0,0,0,0,0,0,0,0,0,0
0,0,54,-28,1925,597,-33,4,148,0,0,0,0,0,0,0,0,0,0,0
0,0,49,-37,1916,598,-33,4,126,0,0,0,0,0,0,0,0,0,0,0
0,0,54,-32,1904,596,-32,6,125,0,0,0,0,0,0,0,0,0,0,0
0,0,52,-34,1924,596,-32,6,141,0,0,0,0,0,0,0,0,0,0,0
0,0,45,-38,1920,595,-34,5,122,0,0,0,0,0,0,0,0,0,0,0
0,0,44,-30,1913,597,-31,3,125,0,0,0,0,0,0,0,0,0,0,0
0,0,55,-38,1923,598,-32,4,139,0,0,0,0,0,0,0,0,0,0,0
0,0,43,-40,1909,598,-33,4,110,0,0,0,0,0,0,0,0,0,0,0
0,0,48,-34,1922,598,-31,3,135,0,0,0,0,0,0,0,0,0,0,0
0,0,43,-40,1917,597,-32,4,118,0,0,0,0,0,0,0,0,0,0,0
0,0,49,-29,1915,598,-33,5,134,0,0,0,0,0,0,0,0,0,0,0
0,0,37,-42,1916,597,-32,4,109,0,0,0,0,0,0,0,0,0,0,0
0,0,50,-39,1930,596,-31,5,140,0,0,0,0,0,0,0,0,0,0,0
0,0,43,-36,1922,595,-32,5,126,0,0,0,0,0,0,0,0,0,0,0
0,0,46,-28,1919,596,-33,4,133,0,0,0,0,0,0,0,0,0,0,0
0,0,51,-34,1917,596,-32,4,131,0,0,0,0,0,0,0,0,0,0,0
0,0,52,-34,1917,596,-32,5,133,0,0,0,0,0,0,0,0,0,0,0
0,0,44,-43,1914,594,-32,5,111,0,0,0,0,0,0,0,0,0,0,0
0,0,44,-41,1924,597,-33,5,125,0,0,0,0,0,0,0,0,0,0,0
0,0,50,-33,1911,598,-31,6,130,0,0,0,0,0,0,0,0,0,0,0
0,0,46,-37,1916,597,-31,5,125,0,0,0,0,0,0,0,0,0,0,0
0,0,39,-31,1923,597,-32,5,130,0,0,0,0,0,0,0,0,0,0,0
0,0,42,-40,1922,596,-31,5,123,0,0,0,0,0,0,0,0,0,0,0
0,0,39,-34,1911,595,-33,5,112,0,0,0,0,0,0,0,0,0,0,0
0,0,44,-36,1921,596,-34,5,125,0,0,0,0,0,0,0,0,0,0,0
0,0,47,-29,1917,595,-33,5,131,0,0,0,0,0,0,0,0,0,0,0
0,0,46,-37,1927,598,-31,5,137,0,0,0,0,0,0,0,0,0,0,0
0,0,40,-36,1922,597,-33,4,123,0,0,0,0,0,0,0,0,0,0,0
0,0,41,-43,1919,596,-34,3,111,0,0,0,0,0,0,0,0,0,0,0
0,0,48,-43,1927,596,-31,2,128,0,0,0,0,0,0,0,0,0,0,0
0,0,46,-43,1913,596,-32,5,114,0,0,0,0,0,0,0,0,0,0,0
0,0,45,-38,1912,595,-31,4,116,0,0,0,0,0,0,0,0,0,0,0
0,0,45,-36,1929,596,-33,4,134,0,0,0,0,0,0,0,0,0,0,0
0,0,41,-33,1925,594,-33,5,128,0,0,0,0,0,0,0,0,0,0,0
0,0,45,-35,1925,598,-30,4,136,0,0,0,0,0,0,0,0,0,0,0
0,0,49,-39,1911,597,-34,5,118,0,0,0,0,0,0,0,0,0,0,0
0,0,51,-34,1918,594,-33,3,128,0,0,0,0,0,0,0,0,0,0,0
0,0,44,-35,1919,593,-32,5,123,0,0,0,0,0,0,0,0,0,0,0
0,0,45,-30,1911,595,-32,5,123,0,0,0,0,0,0,0,0,0,0,0
0,0,42,-37,1924,596,-31,4,127,0,0,0,0,0,0,0,0,0,0,0
0,0,48,-39,1912,595,-33,6,118,0,0,0,0,0,0,0,0,0,0,0
0,0,56,-41,1932,596,-33,4,143,0,0,0,0,0,0,0,0,0,0,0
0,0,50,-36,1929,596,-32,6,142,0,0,0,0,0,0,0,0,0,0,0
0,0,40,-44,1910,595,-34,5,101,0,0,0,0,0,0,0,0,0,0,0
0,0,42,-42,1927,598,-33,5,126,0,0,0,0,0,0,0,0,0,0,0
0,0,44,-44,1913,597,-33,5,111,0,0,0,0,0,0,0,0,0,0,0
0,0,40,-36,1919,597,-33,5,121,0,0,0,0,0,0,0,0,0,0,0
0,0,47,-36,1916,596,-33,4,123,0,0,0,0,0,0,0,0,0,0,0
0,0,49,-39,1930,595,-32,4,136,0,0,0,0,0,0,0,0,0,0,0
0,0,36,-45,1917,596,-33,5,105,0,0,0,0,0,0,0,0,0,0,0
0,0,46,-33,1924,597,-33,4,134,0,0,0,0,0,0,0,0,0,0,0
0,0,49,-36,1922,595,-34,6,131,0,0,0,0,0,0,0,0,0,0,0
0,0,50,-31,1922,597,-31,6,142,0,0,0,0,0,0,0,0,0,0,0
0,0,50,-38,1921,597,-32,2,129,0,0,0,0,0,0,0,0,0,0,0
0,0,50,-37,1928,597,-33,5,139,0,0,0,0,0,0,0,0,0,0,0
0,0,51,-47,1922,595,-32,5,123,0,0,0,0,0,0,0,0,0,0,0
0,0,41,-39,1910,597,-33,6,111,0,0,0,0,0,0,0,0,0,0,0
0,0,44,-35,1909,598,-32,5,118,0,0,0,0,0,0,0,0,0,0,0
0,0,40,-29,1918,596,-32,3,125,0,0,0,0,0,0,0,0,0,0,0
0,0,47,-32,1915,595,-31,6,129,0,0,0,0,0,0,0,0,0,0,0
0,0,49,-32,1922,597,-34,5,136,0,0,0,0,0,0,0,0,0,0,0
0,0,53,-35,1918,596,-30,3,134,0,0,0,0,0,0,0,0,0,0,0
0,0,40,-34,1908,596,-32,5,112,0,0,0,0,0,0,0,0,0,0,0
0,0,48,-32,1915,595,-32,4,127,0,0,0,0,0,0,0,0,0,0,0
0,0,47,-41,1914,595,-33,5,116,0,0,0,0,0,0,0,0,0,0,0
0,0,48,-39,1912,598,-33,6,121,0,0,0,0,0,0,0,0,0,0,0
0,0,44,-29,1926,597,-32,6,141,0,0,0,0,0,0,0,0,0,0,0
0,0,48,-32,1929,596,-31,6,145,0,0,0,0,0,0,0,0,0,0,0
0,0,38,-34,1927,597,-30,6,133,0,0,0,0,0,0,0,0,0,0,0
0,0,46,-33,1919,597,-32,3,129,0,0,0,0,0,0,0,0,0,0,0
0,0,42,-42,1928,596,-32,4,125,0,0,0,0,0,0,0,0,0,0,0
0,0,46,-34,1922,597,-32,6,134,0,0,0,0,0,0,0,0,0,0,0
0,0,45,-27,1923,598,-33,5,140,0,0,0,0,0,0,0,0,0,0,0
0,0,48,-41,1920,596,-33,5,124,0,0,0,0,0,0,0,0,0,0,0
0,0,41,-31,1916,597,-33,4,123,0,0,0,0,0,0,0,0,0,0,0
0,0,47,-38,1921,594,-33,5,125,0,0,0,0,0,0,0,0,0,0,0
0,0,44,-39,1913,596,-32,4,115,0,0,0,0,0,0,0,0,0,0,0
0,0,41,-38,1911,596,-32,3,110,0,0,0,0,0,0,0,0,0,0,0
0,0,41,-37,1922,595,-31,5,124,0,0,0,0,0,0,0,0,0,0,0
0,0,42,-30,1923,596,-32,4,132,0,0,0,0,0,0,0,0,0,0,0
0,0,46,-42,1921,595,-32,5,122,0,0,0,0,0,0,0,0,0,0,0
0,0,45,-43,1918,595,-31,4,117,0,0,0,0,0,0,0,0,0,0,0
0,0,44,-33,1915,596,-32,5,124,0,0,0,0,0,0,0,0,0,0,0
0,0,49,-33,1909,598,-32,5,125,0,0,0,0,0,0,0,0,0,0,0
0,0,46,-36,1908,597,-33,4,115,0,0,0,0,0,0,0,0,0,0,0
0,0,42,-32,1918,595,-32,5,125,0,0,0,0,0,0,0,0,0,0,0
0,0,43,-41,1918,597,-32,5,119,0,0,0,0,0,0,0,0,0,0,0
0,0,47,-35,1904,596,-32,5,114,0,0,0,0,0,0,0,0,0,0,0
0,0,44,-34,1917,597,-31,3,125,0,0,0,0,0,0,0,0,0,0,0
0,0,45,-33,1924,597,-33,4,133,0,0,0,0,0,0,0,0,0,0,0
0,0,38,-31,1922,596,-33,5,126,0,0,0,0,0,0,0,0,0,0,0
0,0,47,-36,1927,595,-32,4,134,0,0,0,0,0,0,0,0,0,0,0
0,0,43,-36,1932,597,-33,4,136,0,0,0,0,0,0,0,0,0,0,0
0,0,49,-31,1926,595,-32,6,142,0,0,0,0,0,0,0,0,0,0,0
0,0,39,-28,1919,596,-32,3,126,0,0,0,0,0,0,0,0,0,0,0
0,0,46,-36,1920,595,-32,3,125,0,0,0,0,0,0,0,0,0,0,0
0,0,46,-38,1930,595,-32,3,133,0,0,0,0,0,0,0,0,0,0,0
0,0,53,-36,1922,596,-31,4,137,0,0,0,0,0,0,0,0,0,0,0
0,0,45,-39,1913,596,-33,5,116,0,0,0,0,0,0,0,0,0,0,0
0,0,39,-38,1916,598,-32,5,117,0,0,0,0,0,0,0,0,0,0,0
0,0,44,-25,1920,596,-33,3,134,0,0,0,0,0,0,0,0,0,0,0
0,0,48,-33,1919,596,-33,4,130,0,0,0,0,0,0,0,0,0,0,0
0,0,49,-35,1925,596,-31,6,139,0,0,0,0,0,0,0,0,0,0,0
0,0,45,-37,1930,597,-32,5,137,0,0,0,0,0,0,0,0,0,0,0
0,0,36,-36,1919,595,-33,5,115,0,0,0,0,0,0,0,0,0,0,0
0,0,46,-38,1920,596,-31,3,125,0,0,0,0,0,0,0,0,0,0,0
0,0,45,-38,1921,596,-35,5,123,0,0,0,0,0,0,0,0,0,0,0
0,0,49,-35,1926,597,-35,4,135,0,0,0,0,0,0,0,0,0,0,0
0,0,47,-34,1932,596,-34,5,141,0,0,0,0,0,0,0,0,0,0,0
0,0,50,-32,1909,596,-33,4,123,0,0,0,0,0,0,0,0,0,0,0
0,0,47,-27,1921,596,-33,5,138,0,0,0,0,0,0,0,0,0,0,0
0,0,45,-42,1924,595,-31,5,125,0,0,0,0,0,0,0,0,0,0,0
0,0,43,-39,1923,596,-34,7,125,0,0,0,0,0,0,0,0,0,0,0
0,0,42,-39,1920,597,-32,4,121,0,0,0,0,0,0,0,0,0,0,0
0,0,45,-36,1922,596,-32,5,129,0,0,0,0,0,0,0,0,0,0,0
0,0,44,-44,1915,596,-34,6,112,0,0,0,0,0,0,0,0,0,0,0
0,0,46,-35,1929,597,-31,4,139,0,0,0,0,0,0,0,0,0,0,0
0,0,42,-34,1918,596,-31,5,125,0,0,0,0,0,0,0,0,0,0,0
0,0,43,-39,1914,597,-32,6,118,0,0,0,0,0,0,0,0,0,0,0
0,0,46,-39,1918,594,-34,4,118,0,0,0,0,0,0,0,0,0,0,0
0,0,47,-40,1923,596,-32,3,126,0,0,0,0,0,0,0,0,0,0,0
0,0,44,-38,1917,596,-32,5,121,0,0,0,0,0,0,0,0,0,0,0
0,0,44,-41,1923,595,-32,6,124,0,0,0,0,0,0,0,0,0,0,0
0,0,51,-37,1908,596,-34,4,117,0,0,0,0,0,0,0,0,0,0,0
0,0,43,-28,1922,597,-33,6,136,0,0,0,0,0,0,0,0,0,0,0
0,0,46,-36,1917,596,-31,6,127,0,0,0,0,0,0,0,0,0,0,0
0,0,49,-38,1923,597,-32,5,133,0,0,0,0,0,0,0,0,0,0,0
0,0,48,-43,1923,598,-32,6,129,0,0,0,0,0,0,0,0,0,0,0
0,0,42,-32,1920,596,-33,6,128,0,0,0,0,0,0,0,0,0,0,0
0,0,42,-37,1917,596,-32,6,121,0,0,0,0,0,0,0,0,0,0,0
0,0,44,-33,1909,596,-32,6,119,0,0,0,0,0,0,0,0,0,0,0
0,0,40,-39,1922,597,-32,6,123,0,0,0,0,0,0,0,0,0,0,0
0,0,38,-34,1915,596,-34,5,115,0,0,0,0,0,0,0,0,0,0,0
0,0,40,-36,1922,596,-33,4,122,0,0,0,0,0,0,0,0,0,0,0
0,0,48,-37,1921,596,-34,4,127,0,0,0,0,0,0,0,0,0,0,0
0,0,46,-36,1912,594,-32,4,117,0,0,0,0,0,0,0,0,0,0,0
0,0,50,-37,1924,596,-32,6,136,0,0,0,0,0,0,0,0,0,0,0
0,0,50,-35,1909,596,-33,4,120,0,0,0,0,0,0,0,0,0,0,0
0,0,51,-37,1928,596,-32,4,139,0,0,0,0,0,0,0,0,0,0,0
0,0,49,-36,1923,594,-32,4,131,0,0,0,0,0,0,0,0,0,0,0
0,0,44,-44,1916,595,-33,6,113,0,0,0,0,0,0,0,0,0,0,0
0,0,43,-40,1935,596,-31,5,137,0,0,0,0,0,0,0,0,0,0,0
0,0,45,-32,1922,595,-32,5,132,0,0,0,0,0,0,0,0,0,0,0
0,0,47,-37,1928,595,-31,4,135,0,0,0,0,0,0,0,0,0,0,0
0,0,43,-37,1928,597,-33,5,132,0,0,0,0,0,0,0,0,0,0,0
0,0,55,-33,1923,598,-33,3,142,0,0,0,0,0,0,0,0,0,0,0
0,0,46,-35,1916,596,-32,5,125,0,0,0,0,0,0,0,0,0,0,0
0,0,51,-38,1916,594,-32,6,126,0,0,0,0,0,0,0,0,0,0,0
0,0,48,-36,1923,596,-33,6,133,0,0,0,0,0,0,0,0,0,0,0
0,0,48,-39,1920,595,-31,5,127,0,0,0,0,0,0,0,0,0,0,0
0,0,50,-38,1916,596,-33,6,126,0,0,0,0,0,0,0,0,0,0,0
0,0,43,-39,1919,596,-31,5,122,0,0,0,0,0,0,0,0,0,0,0
0,0,47,-36,1912,595,-32,4,119,0,0,0,0,0,0,0,0,0,0,0
0,0,47,-36,1917,596,-31,6,128,0,0,0,0,0,0,0,0,0,0,0
0,0,44,-38,1912,597,-32,4,116,0,0,0,0,0,0,0,0,0,0,0
0,0,49,-44,1923,598,-33,3,125,0,0,0,0,0,0,0,0,0,0,0
0,0,45,-40,1919,597,-33,4,121,0,0,0,0,0,0,0,0,0,0,0
0,0,46,-40,1927,596,-31,5,132,0,0,0,0,0,0,0,0,0,0,0
0,0,48,-33,1916,596,-30,5,131,0,0,0,0,0,0,0,0,0,0,0
0,0,43,-30,1920,594,-32,4,128,0,0,0,0,0,0,0,0,0,0,0
0,0,40,-38,1922,594,-31,5,121,0,0,0,0,0,0,0,0,0,0,0
0,0,40,-34,1916,598,-31,3,121,0,0,0,0,0,0,0,0,0,0,0
0,0,44,-39,1918,598,-33,3,120,0,0,0,0,0,0,0,0,0,0,0
0,0,50,-37,1918,596,-33,4,127,0,0,0,0,0,0,0,0,0,0,0
0,0,46,-40,1912,596,-32,5,116,0,0,0,0,0,0,0,0,0,0,0
0,0,42,-41,1909,596,-30,4,109,0,0,0,0,0,0,0,0,0,0,0
0,0,39,-32,1912,597,-31,3,117,0,0,0,0,0,0,0,0,0,0,0
0,0,43,-40,1921,596,-33,3,119,0,0,0,0,0,0,0,0,0,0,0
0,0,42,-35,1918,596,-34,4,120,0,0,0,0,0,0,0,0,0,0,0
0,0,42,-40,1926,596,-32,4,125,0,0,0,0,0,0,0,0,0,0,0
0,0,41,-35,1926,597,-31,4,131,0,0,0,0,0,0,0,0,0,0,0
0,0,45,-30,1913,595,-31,5,126,0,0,0,0,0,0,0,0,0,0,0
0,0,43,-40,1921,594,-32,5,120,0,0,0,0,0,0,0,0,0,0,0
0,0,43,-35,1916,592,-32,4,117,0,0,0,0,0,0,0,0,0,0,0
0,0,42,-29,1916,596,-32,3,125,0,0,0,0,0,0,0,0,0,0,0
0,0,41,-39,1917,597,-34,4,115,0,0,0,0,0,0,0,0,0,0,0
0,0,46,-37,1919,596,-31,6,128,0,0,0,0,0,0,0,0,0,0,0
0,0,44,-34,1917,600,-33,6,129,0,0,0,0,0,0,0,0,0,0,0
0,0,38,-43,1913,597,-31,5,108,0,0,0,0,0,0,0,0,0,0,0
0,0,50,-36,1918,596,-32,6,131,0,0,0,0,0,0,0,0,0,0,0
0,0,50,-38,1925,595,-32,4,133,0,0,0,0,0,0,0,0,0,0,0
0,0,34,-31,1918,598,-33,5,120,0,0,0,0,0,0,0,0,0,0,0
0,0,50,-36,1912,596,-34,4,121,0,0,0,0,0,0,0,0,0,0,0
0,0,39,-41,1916,597,-32,4,112,0,0,0,0,0,0,0,0,0,0,0
0,0,39,-37,1932,596,-32,6,133,0,0,0,0,0,0,0,0,0,0,0
0,0,43,-40,1919,596,-30,4,121,0,0,0,0,0,0,0,0,0,0,0
0,0,48,-39,1903,596,-33,5,109,0,0,0,0,0,0,0,0,0,0,0
0,0,51,-43,1912,597,-34,4,116,0,0,0,0,0,0,0,0,0,0,0
0,0,45,-37,1916,596,-32,4,121,0,0,0,0,0,0,0,0,0,0,0
0,0,54,-35,1919,595,-33,4,133,0,0,0,0,0,0,0,0,0,0,0
0,0,50,-34,1927,597,-33,3,139,0,0,0,0,0,0,0,0,0,0,0
0,0,43,-35,1930,596,-33,4,134,0,0,0,0,0,0,0,0,0,0,0
0,0,46,-41,1930,598,-31,6,137,0,0,0,0,0,0,0,0,0,0,0
0,0,53,-41,1932,596,-31,3,141,0,0,0,0,0,0,0,0,0,0,0
0,0,50,-32,1919,596,-31,5,136,0,0,0,0,0,0,0,0,0,0,0
0,0,48,-38,1921,594,-34,4,124,0,0,0,0,0,0,0,0,0,0,0
0,0,46,-40,1917,597,-33,3,119,0,0,0,0,0,0,0,0,0,0,0
0,0,48,-38,1930,595,-33,4,135,0,0,0,0,0,0,0,0,0,0,0
0,0,40,-36,1923,595,-32,4,123,0,0,0,0,0,0,0,0,0,0,0
0,0,40,-39,1932,595,-32,5,130,0,0,0,0,0,0,0,0,0,0,0
0,0,41,-38,1932,596,-33,5,132,0,0,0,0,0,0,0,0,0,0,0
0,0,36,-40,1922,595,-34,4,112,0,0,0,0,0,0,0,0,0,0,0
0,0,46,-39,1915,597,-31,6,123,0,0,0,0,0,0,0,0,0,0,0
0,0,51,-36,1916,595,-33,5,127,0,0,0,0,0,0,0,0,0,0,0
0,0,40,-41,1914,597,-31,4,112,0,0,0,0,0,0,0,0,0,0,0
0,0,43,-37,1917,596,-31,5,122,0,0,0,0,0,0,0,0,0,0,0
0,0,41,-35,1918,596,-32,5,122,0,0,0,0,0,0,0,0,0,0,0
0,0,49,-38,1905,596,-31,5,115,0,0,0,0,0,0,0,0,0,0,0
0,0,42,-36,1919,593,-33,4,118,0,0,0,0,0,0,0,0,0,0,0
0,0,46,-31,1910,597,-32,5,124,0,0,0,0,0,0,0,0,0,0,0
0,0,53,-36,1919,596,-32,5,134,0,0,0,0,0,0,0,0,0,0,0
0,0,46,-33,1920,596,-33,4,129,0,0,0,0,0,0,0,0,0,0,0
0,0,54,-35,1917,597,-31,3,134,0,0,0,0,0,0,0,0,0,0,0
0,0,46,-42,1916,597,-32,2,116,0,0,0,0,0,0,0,0,0,0,0
0,0,46,-32,1913,595,-33,5,123,0,0,0,0,0,0,0,0,0,0,0
0,0,43,-43,1921,596,-33,6,119,0,0,0,0,0,0,0,0,0,0,0
0,0,49,-34,1921,595,-32,5,133,0,0,0,0,0,0,0,0,0,0,0
0,0,52,-41,1923,596,-33,5,131,0,0,0,0,0,0,0,0,0,0,0
0,0,54,-35,1920,597,-32,4,137,0,0,0,0,0,0,0,0,0,0,0
0,0,45,-43,1917,597,-33,5,117,0,0,0,0,0,0,0,0,0,0,0
0,0,48,-33,1914,596,-32,4,126,0,0,0,0,0,0,0,0,0,0,0
0,0,39,-35,1929,598,-33,5,132,0,0,0,0,0,0,0,0,0,0,0
0,0,54,-44,1921,596,-32,5,129,0,0,0,0,0,0,0,0,0,0,0
0,0,48,-41,1924,597,-32,7,132,0,0,0,0,0,0,0,0,0,0,0
0,0,43,-39,1917,597,-31,6,122,0,0,0,0,0,0,0,0,0,0,0
0,0,45,-40,1920,596,-33,5,122,0,0,0,0,0,0,0,0,0,0,0
0,0,46,-36,1909,596,-33,6,117,0,0,0,0,0,0,0,0,0,0,0
0,0,42,-39,1923,596,-32,4,123,0,0,0,0,0,0,0,0,0,0,0
0,0,48,-38,1924,597,-32,4,132,0,0,0,0,0,0,0,0,0,0,0
0,0,42,-29,1920,597,-31,5,133,0,0,0,0,0,0,0,0,0,0,0
0,0,47,-26,1913,598,-31,3,133,0,0,0,0,0,0,0,0,0,0,0
0,0,45,-40,1906,598,-33,5,110,0,0,0,0,0,0,0,0,0,0,0
0,0,43,-38,1921,599,-32,6,128,0,0,0,0,0,0,0,0,0,0,0
0,0,48,-39,1922,598,-33,5,130,0,0,0,0,0,0,0,0,0,0,0
0,0,52,-41,1924,597,-33,4,132,0,0,0,0,0,0,0,0,0,0,0
0,0,39,-36,1916,599,-32,3,118,0,0,0,0,0,0,0,0,0,0,0
0,0,43,-33,1910,596,-32,5,118,0,0,0,0,0,0,0,0,0,0,0
0,0,50,-38,1920,597,-33,3,128,0,0,0,0,0,0,0,0,0,0,0
0,0,47,-38,1915,595,-32,5,121,0,0,0,0,0,0,0,0,0,0,0
0,0,45,-42,1928,597,-30,4,131,0,0,0,0,0,0,0,0,0,0,0
0,0,49,-42,1920,595,-32,5,124,0,0,0,0,0,0,0,0,0,0,0
0,0,47,-31,1923,595,-34,3,132,0,0,0,0,0,0,0,0,0,0,0
0,0,43,-31,1923,597,-33,4,132,0,0,0,0,0,0,0,0,0,0,0
0,0,35,-34,1927,596,-33,6,126,0,0,0,0,0,0,0,0,0,0,0
0,0,44,-41,1923,596,-31,3,123,0,0,0,0,0,0,0,0,0,0,0
0,0,47,-39,1917,595,-32,4,121,0,0,0,0,0,0,0,0,0,0,0
0,0,40,-37,1929,597,-32,4,130,0,0,0,0,0,0,0,0,0,0,0
0,0,47,-36,1915,597,-33,4,123,0,0,0,0,0,0,0,0,0,0,0
0,0,42,-34,1917,595,-34,4,119,0,0,0,0,0,0,0,0,0,0,0
0,0,51,-38,1916,595,-33,5,125,0,0,0,0,0,0,0,0,0,0,0
0,0,53,-41,1925,597,-34,4,133,0,0,0,0,0,0,0,0,0,0,0
0,0,55,-42,1925,595,-32,4,134,0,0,0,0,0,0,0,0,0,0,0
0,0,39,-34,1918,596,-33,4,119,0,0,0,0,0,0,0,0,0,0,0
0,0,47,-40,1919,594,-32,7,124,0,0,0,0,0,0,0,0,0,0,0
0,0,49,-38,1927,596,-32,5,136,0,0,0,0,0,0,0,0,0,0,0
0,0,43,-35,1920,595,-33,3,122,0,0,0,0,0,0,0,0,0,0,0
0,0,41,-43,1915,595,-32,3,108,0,0,0,0,0,0,0,0,0,0,0
0,0,44,-40,1922,595,-32,4,122,0,0,0,0,0,0,0,0,0,0,0
0,0,45,-36,1926,597,-33,3,131,0,0,0,0,0,0,0,0,0,0,0
0,0,44,-40,1919,598,-33,4,121,0,0,0,0,0,0,0,0,0,0,0
0,0,47,-33,1912,596,-31,6,126,0,0,0,0,0,0,0,0,0,0,0
0,0,42,-33,1916,594,-32,4,120,0,0,0,0,0,0,0,0,0,0,0
0,0,49,-37,1908,597,-32,6,120,0,0,0,0,0,0,0,0,0,0,0
0,0,44,-41,1915,596,-33,5,115,0,0,0,0,0,0,0,0,0,0,0
0,0,47,-34,1910,598,-31,5,124,0,0,0,0,0,0,0,0,0,0,0
0,0,49,-33,1922,597,-30,3,137,0,0,0,0,0,0,0,0,0,0,0
0,0,49,-32,1918,597,-31,4,134,0,0,0,0,0,0,0,0,0,0,0
0,0,48,-40,1927,597,-33,4,132,0,0,0,0,0,0,0,0,0,0,0
0,0,45,-41,1925,595,-34,5,124,0,0,0,0,0,0,0,0,0,0,0
0,0,50,-40,1917,596,-32,6,126,0,0,0,0,0,0,0,0,0,0,0
0,0,42,-35,1926,596,-32,6,132,0,0,0,0,0,0,0,0,0,0,0
0,0,44,-46,1907,596,-32,5,103,0,0,0,0,0,0,0,0,0,0,0
0,0,47,-43,1917,596,-31,5,120,0,0,0,0,0,0,0,0,0,0,0
0,0,43,-39,1929,594,-31,4,129,0,0,0,0,0,0,0,0,0,0,0
0,0,43,-37,1924,595,-33,4,125,0,0,0,0,0,0,0,0,0,0,0
0,0,42,-41,1926,596,-33,2,121,0,0,0,0,0,0,0,0,0,0,0
0,0,47,-33,1927,596,-33,4,137,0,0,0,0,0,0,0,0,0,0,0
0,0,43,-33,1913,598,-31,5,124,0,0,0,0,0,0,0,0,0,0,0
0,0,42,-39,1918,595,-31,6,120,0,0,0,0,0,0,0,0,0,0,0
0,0,45,-33,1925,595,-33,5,133,0,0,0,0,0,0,0,0,0,0,0
0,0,51,-42,1916,597,-34,5,122,0,0,0,0,0,0,0,0,0,0,0
0,0,47,-40,1922,595,-31,5,127,0,0,0,0,0,0,0,0,0,0,0
0,0,46,-36,1913,597,-33,5,121,0,0,0,0,0,0,0,0,0,0,0
0,0,48,-32,1910,595,-32,6,124,0,0,0,0,0,0,0,0,0,0,0
0,0,45,-39,1916,596,-32,5,120,0,0,0,0,0,0,0,0,0,0,0
0,0,43,-40,1919,594,-32,6,119,0,0,0,0,0,0,0,0,0,0,0
0,0,46,-35,1933,597,-31,3,142,0,0,0,0,0,0,0,0,0,0,0
0,0,46,-34,1921,596,-32,5,131,0,0,0,0,0,0,0,0,0,0,0
0,0,48,-40,1925,596,-32,5,131,0,0,0,0,0,0,0,0,0,0,0
0,0,49,-36,1925,595,-31,5,136,0,0,0,0,0,0,0,0,0,0,0
0,0,49,-40,1921,597,-33,3,126,0,0,0,0,0,0,0,0,0,0,0
0,0,54,-38,1913,596,-32,3,125,0,0,0,0,0,0,0,0,0,0,0
0,0,42,-37,1916,596,-31,4,119,0,0,0,0,0,0,0,0,0,0,0
0,0,43,-34,1934,597,-32,5,142,0,0,0,0,0,0,0,0,0,0,0
0,0,54,-34,1918,596,-33,4,134,0,0,0,0,0,0,0,0,0,0,0
0,0,48,-38,1922,594,-32,4,127,0,0,0,0,0,0,0,0,0,0,0
0,0,51,-40,1922,595,-33,6,130,0,0,0,0,0,0,0,0,0,0,0
0,0,46,-38,1931,597,-34,5,136,0,0,0,0,0,0,0,0,0,0,0
0,0,50,-33,1920,596,-32,5,135,0,0,0,0,0,0,0,0,0,0,0
0,0,47,-38,1919,595,-32,5,125,0,0,0,0,0,0,0,0,0,0,0
0,0,47,-31,1923,596,-31,6,139,0,0,0,0,0,0,0,0,0,0,0
0,0,45,-34,1912,596,-31,5,122,0,0,0,0,0,0,0,0,0,0,0
0,0,49,-36,1917,596,-32,4,127,0,0,0,0,0,0,0,0,0,0,0
0,0,43,-41,1918,596,-31,4,118,0,0,0,0,0,0,0,0,0,0,0
0,0,50,-39,1926,597,-32,5,136,0,0,0,0,0,0,0,0,0,0,0
0,0,51,-36,1923,597,-32,6,138,0,0,0,0,0,0,0,0,0,0,0
0,0,47,-39,1934,595,-32,3,137,0,0,0,0,0,0,0,0,0,0,0
0,0,47,-39,1921,594,-32,4,124,0,0,0,0,0,0,0,0,0,0,0
0,0,50,-40,1921,596,-33,3,126,0,0,0,0,0,0,0,0,0,0,0
0,0,45,-47,1914,596,-31,3,109,0,0,0,0,0,0,0,0,0,0,0
0,0,52,-32,1911,598,-33,4,129,0,0,0,0,0,0,0,0,0,0,0
0,0,47,-36,1914,595,-34,1,116,0,0,0,0,0,0,0,0,0,0,0
0,0,50,-36,1925,598,-32,5,139,0,0,0,0,0,0,0,0,0,0,0
0,0,50,-39,1920,595,-33,5,127,0,0,0,0,0,0,0,0,0,0,0
0,0,47,-42,1916,595,-33,5,117,0,0,0,0,0,0,0,0,0,0,0
0,0,43,-39,1928,596,-32,6,131,0,0,0,0,0,0,0,0,0,0,0
0,0,46,-41,1926,594,-31,4,127,0,0,0,0,0,0,0,0,0,0,0
0,0,52,-38,1929,596,-30,2,140,0,0,0,0,0,0,0,0,0,0,0
0,0,49,-36,1915,596,-32,5,126,0,0,0,0,0,0,0,0,0,0,0
0,0,49,-29,1924,596,-31,5,143,0,0,0,0,0,0,0,0,0,0,0
0,0,45,-34,1924,597,-32,4,133,0,0,0,0,0,0,0,0,0,0,0
0,0,50,-35,1915,595,-32,6,128,0,0,0,0,0,0,0,0,0,0,0
0,0,38,-34,1917,596,-33,3,116,0,0,0,0,0,0,0,0,0,0,0
0,0,46,-32,1924,597,-33,6,137,0,0,0,0,0,0,0,0,0,0,0
0,0,46,-35,1924,596,-33,5,132,0,0,0,0,0,0,0,0,0,0,0
0,0,48,-34,1921,596,-32,7,135,0,0,0,0,0,0,0,0,0,0,0
0,0,36,-35,1911,595,-33,4,107,0,0,0,0,0,0,0,0,0,0,0
0,0,44,-42,1920,594,-33,5,117,0,0,0,0,0,0,0,0,0,0,0
0,0,44,-38,1924,596,-32,4,127,0,0,0,0,0,0,0,0,0,0,0
0,0,40,-34,1929,596,-31,4,133,0,0,0,0,0,0,0,0,0,0,0
0,0,49,-34,1909,593,-30,4,120,0,0,0,0,0,0,0,0,0,0,0
0,0,45,-34,1907,596,-33,4,114,0,0,0,0,0,0,0,0,0,0,0
0,0,46,-40,1919,597,-33,4,122,0,0,0,0,0,0,0,0,0,0,0
0,0,49,-38,1926,597,-33,4,134,0,0,0,0,0,0,0,0,0,0,0
0,0,50,-34,1918,598,-32,4,133,0,0,0,0,0,0,0,0,0,0,0
0,0,51,-31,1914,595,-32,5,131,0,0,0,0,0,0,0,0,0,0,0
0,0,43,-32,1912,596,-31,5,122,0,0,0,0,0,0,0,0,0,0,0
0,0,45,-35,1916,597,-32,5,125,0,0,0,0,0,0,0,0,0,0,0
0,0,48,-37,1915,596,-34,4,121,0,0,0,0,0,0,0,0,0,0,0
0,0,41,-38,1911,595,-33,5,110,0,0,0,0,0,0,0,0,0,0,0
0,0,39,-39,1920,596,-33,5,117,0,0,0,0,0,0,0,0,0,0,0
0,0,55,-37,1923,594,-33,5,136,0,0,0,0,0,0,0,0,0,0,0
0,0,51,-34,1916,597,-34,3,128,0,0,0,0,0,0,0,0,0,0,0
0,0,38,-33,1910,595,-32,5,112,0,0,0,0,0,0,0,0,0,0,0
0,0,50,-41,1923,594,-33,2,124,0,0,0,0,0,0,0,0,0,0,0
0,0,49,-38,1917,596,-32,3,124,0,0,0,0,0,0,0,0,0,0,0
0,0,46,-42,1911,595,-31,3,111,0,0,0,0,0,0,0,0,0,0,0
0,0,45,-39,1907,596,-31,3,110,0,0,0,0,0,0,0,0,0,0,0
0,0,53,-35,1929,597,-31,5,147,0,0,0,0,0,0,0,0,0,0,0
0,0,56,-38,1919,595,-33,3,131,0,0,0,0,0,0,0,0,0,0,0
0,0,43,-39,1921,596,-33,5,122,0,0,0,0,0,0,0,0,0,0,0
0,0,44,-46,1922,596,-33,4,116,0,0,0,0,0,0,0,0,0,0,0
0,0,38,-35,1918,596,-32,3,117,0,0,0,0,0,0,0,0,0,0,0
0,0,48,-38,1919,595,-33,4,124,0,0,0,0,0,0,0,0,0,0,0
0,0,46,-44,1919,596,-33,4,117,0,0,0,0,0,0,0,0,0,0,0
0,0,46,-34,1925,595,-31,5,135,0,0,0,0,0,0,0,0,0,0,0
0,0,44,-34,1922,595,-31,4,129,0,0,0,0,0,0,0,0,0,0,0
0,0,47,-37,1919,596,-32,6,128,0,0,0,0,0,0,0,0,0,0,0
0,0,40,-39,1920,596,-33,4,117,0,0,0,0,0,0,0,0,0,0,0
0,0,45,-40,1917,595,-32,5,119,0,0,0,0,0,0,0,0,0,0,0
0,0,45,-38,1915,595,-32,4,118,0,0,0,0,0,0,0,0,0,0,0
0,0,50,-31,1910,595,-34,5,124,0,0,0,0,0,0,0,0,0,0,0
0,0,45,-35,1920,597,-33,4,127,0,0,0,0,0,0,0,0,0,0,0
0,0,50,-39,1913,596,-33,5,121,0,0,0,0,0,0,0,0,0,0,0
0,0,37,-34,1927,596,-32,6,129,0,0,0,0,0,0,0,0,0,0,0
0,0,47,-31,1904,596,-32,5,118,0,0,0,0,0,0,0,0,0,0,0
0,0,50,-42,1921,596,-32,3,125,0,0,0,0,0,0,0,0,0,0,0
0,0,45,-46,1918,597,-32,4,115,0,0,0,0,0,0,0,0,0,0,0
0,0,44,-35,1930,597,-31,5,139,0,0,0,0,0,0,0,0,0,0,0
0,0,53,-38,1913,597,-33,2,123,0,0,0,0,0,0,0,0,0,0,0
0,0,48,-40,1915,596,-32,3,119,0,0,0,0,0,0,0,0,0,0,0
0,0,46,-35,1915,594,-31,4,122,0,0,0,0,0,0,0,0,0,0,0
0,0,48,-37,1916,596,-33,6,125,0,0,0,0,0,0,0,0,0,0,0
0,0,47,-33,1913,595,-33,2,120,0,0,0,0,0,0,0,0,0,0,0
0,0,45,-41,1918,595,-34,5,117,0,0,0,0,0,0,0,0,0,0,0
0,0,45,-38,1909,597,-34,5,113,0,0,0,0,0,0,0,0,0,0,0
0,0,39,-40,1914,597,-34,5,110,0,0,0,0,0,0,0,0,0,0,0
0,0,45,-37,1915,596,-33,5,120,0,0,0,0,0,0,0,0,0,0,0
0,0,44,-31,1926,595,-34,3,132,0,0,0,0,0,0,0,0,0,0,0
0,0,47,-34,1918,597,-32,4,129,0,0,0,0,0,0,0,0,0,0,0
0,0,53,-39,1914,597,-30,4,128,0,0,0,0,0,0,0,0,0,0,0
0,0,50,-39,1927,596,-34,5,134,0,0,0,0,0,0,0,0,0,0,0
0,0,38,-30,1925,596,-33,5,130,0,0,0,0,0,0,0,0,0,0,0
0,0,40,-35,1914,597,-32,6,119,0,0,0,0,0,0,0,0,0,0,0
0,0,36,-37,1921,598,-33,5,119,0,0,0,0,0,0,0,0,0,0,0
0,0,44,-44,1914,597,-33,5,112,0,0,0,0,0,0,0,0,0,0,0
0,0,41,-35,1919,594,-31,4,121,0,0,0,0,0,0,0,0,0,0,0
0,0,49,-35,1917,595,-34,4,125,0,0,0,0,0,0,0,0,0,0,0
0,0,50,-39,1921,595,-33,4,127,0,0,0,0,0,0,0,0,0,0,0
0,0,48,-32,1917,595,-33,5,129,0,0,0,0,0,0,0,0,0,0,0
0,0,49,-37,1926,596,-32,3,134,0,0,0,0,0,0,0,0,0,0,0
0,0,48,-34,1915,597,-32,2,125,0,0,0,0,0,0,0,0,0,0,0
0,0,46,-30,1910,597,-32,5,125,0,0,0,0,0,0,0,0,0,0,0
0,0,43,-37,1910,597,-30,5,117,0,0,0,0,0,0,0,0,0,0,0
0,0,45,-43,1932,597,-32,5,133,0,0,0,0,0,0,0,0,0,0,0
0,0,48,-36,1919,596,-32,6,130,0,0,0,0,0,0,0,0,0,0,0
0,0,40,-43,1917,595,-33,5,110,0,0,0,0,0,0,0,0,0,0,0
0,0,49,-37,1918,597,-33,3,126,0,0,0,0,0,0,0,0,0,0,0
0,0,44,-38,1926,595,-31,5,130,0,0,0,0,0,0,0,0,0,0,0
0,0,41,-43,1910,594,-32,4,103,0,0,0,0,0,0,0,0,0,0,0
0,0,41,-36,1924,596,-32,3,125,0,0,0,0,0,0,0,0,0,0,0
0,0,45,-40,1924,595,-32,5,126,0,0,0,0,0,0,0,0,0,0,0
0,0,48,-38,1910,596,-32,4,117,0,0,0,0,0,0,0,0,0,0,0
0,0,51,-37,1930,596,-32,4,141,0,0,0,0,0,0,0,0,0,0,0
0,0,43,-39,1927,595,-34,3,124,0,0,0,0,0,0,0,0,0,0,0
0,0,40,-38,1924,597,-33,3,122,0,0,0,0,0,0,0,0,0,0,0
0,0,43,-39,1926,595,-33,2,123,0,0,0,0,0,0,0,0,0,0,0
0,0,42,-37,1923,595,-31,6,127,0,0,0,0,0,0,0,0,0,0,0
0,0,46,-34,1913,595,-33,4,120,0,0,0,0,0,0,0,0,0,0,0
0,0,45,-45,1917,595,-33,5,113,0,0,0,0,0,0,0,0,0,0,0
0,0,45,-37,1924,597,-31,3,130,0,0,0,0,0,0,0,0,0,0,0
0,0,45,-33,1921,595,-33,4,128,0,0,0,0,0,0,0,0,0,0,0
0,0,44,-39,1913,595,-32,5,115,0,0,0,0,0,0,0,0,0,0,0
0,0,47,-35,1919,596,-33,5,128,0,0,0,0,0,0,0,0,0,0,0
0,0,50,-38,1914,596,-33,4,122,0,0,0,0,0,0,0,0,0,0,0
0,0,42,-38,1923,597,-34,4,123,0,0,0,0,0,0,0,0,0,0,0
0,0,51,-41,1914,594,-33,3,117,0,0,0,0,0,0,0,0,0,0,0
0,0,40,-34,1904,595,-31,7,110,0,0,0,0,0,0,0,0,0,0,0
0,0,43,-35,1911,597,-33,7,119,0,0,0,0,0,0,0,0,0,0,0
0,0,42,-35,1925,596,-32,6,131,0,0,0,0,0,0,0,0,0,0,0
0,0,51,-37,1921,597,-32,4,133,0,0,0,0,0,0,0,0,0,0,0
0,0,48,-36,1918,596,-33,3,125,0,0,0,0,0,0,0,0,0,0,0
0,0,45,-32,1912,597,-31,5,125,0,0,0,0,0,0,0,0,0,0,0
0,0,44,-44,1923,595,-32,4,119,0,0,0,0,0,0,0,0,0,0,0
0,0,42,-46,1920,595,-33,4,111,0,0,0,0,0,0,0,0,0,0,0
0,0,49,-42,1913,595,-31,4,117,0,0,0,0,0,0,0,0,0,0,0
0,0,46,-44,1920,596,-34,5,118,0,0,0,0,0,0,0,0,0,0,0
0,0,44,-34,1921,595,-32,5,128,0,0,0,0,0,0,0,0,0,0,0
0,0,52,-38,1927,597,-33,6,140,0,0,0,0,0,0,0,0,0,0,0
0,0,42,-31,1933,597,-33,6,143,0,0,0,0,0,0,0,0,0,0,0
0,0,43,-37,1916,597,-33,5,120,0,0,0,0,0,0,0,0,0,0,0
0,0,49,-38,1906,597,-32,4,115,0,0,0,0,0,0,0,0,0,0,0
0,0,45,-36,1921,595,-33,4,125,0,0,0,0,0,0,0,0,0,0,0
0,0,43,-43,1927,596,-31,5,126,0,0,0,0,0,0,0,0,0,0,0
0,0,43,-35,1919,597,-30,5,128,0,0,0,0,0,0,0,0,0,0,0
0,0,37,-33,1912,597,-33,6,115,0,0,0,0,0,0,0,0,0,0,0
0,0,41,-35,1924,596,-33,5,127,0,0,0,0,0,0,0,0,0,0,0
0,0,45,-37,1915,598,-31,4,123,0,0,0,0,0,0,0,0,0,0,0
0,0,45,-40,1920,595,-32,5,122,0,0,0,0,0,0,0,0,0,0,0
0,0,49,-33,1917,597,-33,4,130,0,0,0,0,0,0,0,0,0,0,0
0,0,41,-39,1917,595,-33,5,115,0,0,0,0,0,0,0,0,0,0,0
0,0,44,-40,1923,596,-32,2,122,0,0,0,0,0,0,0,0,0,0,0
0,0,41,-38,1911,598,-31,5,115,0,0,0,0,0,0,0,0,0,0,0
0,0,46,-37,1918,596,-32,5,125,0,0,0,0,0,0,0,0,0,0,0
0,0,50,-40,1922,597,-33,4,129,0,0,0,0,0,0,0,0,0,0,0
0,0,47,-35,1910,597,-33,5,120,0,0,0,0,0,0,0,0,0,0,0
0,0,49,-41,1918,597,-33,4,123,0,0,0,0,0,0,0,0,0,0,0
0,0,52,-45,1910,596,-33,4,113,0,0,0,0,0,0,0,0,0,0,0
0,0,41,-27,1920,599,-31,6,137,0,0,0,0,0,0,0,0,0,0,0
0,0,42,-35,1913,596,-33,4,116,0,0,0,0,0,0,0,0,0,0,0
0,0,44,-35,1934,594,-33,5,138,0,0,0,0,0,0,0,0,0,0,0
0,0,42,-32,1912,594,-31,5,119,0,0,0,0,0,0,0,0,0,0,0
0,0,57,-43,1916,594,-32,4,125,0,0,0,0,0,0,0,0,0,0,0
0,0,52,-37,1917,596,-32,4,129,0,0,0,0,0,0,0,0,0,0,0
0,0,46,-35,1919,595,-32,6,128,0,0,0,0,0,0,0,0,0,0,0
0,0,44,-38,1910,597,-31,5,116,0,0,0,0,0,0,0,0,0,0,0
0,0,52,-34,1922,596,-33,5,137,0,0,0,0,0,0,0,0,0,0,0
0,0,46,-32,1916,596,-33,4,126,0,0,0,0,0,0,0,0,0,0,0
0,0,42,-32,1922,597,-33,4,129,0,0,0,0,0,0,0,0,0,0,0
0,0,36,-41,1919,595,-32,4,110,0,0,0,0,0,0,0,0,0,0,0
0,0,44,-43,1917,597,-32,6,118,0,0,0,0,0,0,0,0,0,0,0
0,0,48,-36,1922,597,-33,4,131,0,0,0,0,0,0,0,0,0,0,0
0,0,51,-39,1914,596,-31,5,125,0,0,0,0,0,0,0,0,0,0,0
0,0,43,-38,1929,595,-33,4,129,0,0,0,0,0,0,0,0,0,0,0
0,0,56,-37,1916,595,-33,5,131,0,0,0,0,0,0,0,0,0,0,0
0,0,47,-36,1923,597,-33,3,130,0,0,0,0,0,0,0,0,0,0,0
0,0,43,-36,1911,595,-33,5,114,0,0,0,0,0,0,0,0,0,0,0
0,0,47,-37,1913,596,-33,5,120,0,0,0,0,0,0,0,0,0,0,0
0,0,51,-35,1914,597,-33,5,128,0,0,0,0,0,0,0,0,0,0,0
0,0,42,-38,1921,595,-32,6,123,0,0,0,0,0,0,0,0,0,0,0
0,0,42,-34,1921,596,-31,5,128,0,0,0,0,0,0,0,0,0,0,0
0,0,45,-29,1928,596,-33,5,141,0,0,0,0,0,0,0,0,0,0,0
0,0,45,-41,1929,595,-33,5,129,0,0,0,0,0,0,0,0,0,0,0
0,0,45,-29,1919,596,-34,5,131,0,0,0,0,0,0,0,0,0,0,0
0,0,39,-41,1926,596,-33,4,120,0,0,0,0,0,0,0,0,0,0,0
0,0,41,-35,1932,595,-34,5,133,0,0,0,0,0,0,0,0,0,0,0
0,0,47,-36,1912,596,-34,6,120,0,0,0,0,0,0,0,0,0,0,0
0,0,40,-30,1911,596,-33,3,116,0,0,0,0,0,0,0,0,0,0,0
0,0,50,-46,1926,597,-31,4,129,0,0,0,0,0,0,0,0,0,0,0
0,0,47,-32,1921,596,-33,6,134,0,0,0,0,0,0,0,0,0,0,0
0,0,36,-40,1922,596,-33,6,116,0,0,0,0,0,0,0,0,0,0,0
0,0,40,-27,1920,596,-32,4,130,0,0,0,0,0,0,0,0,0,0,0
0,0,49,-34,1905,595,-33,4,115,0,0,0,0,0,0,0,0,0,0,0
0,0,48,-32,1922,597,-33,5,136,0,0,0,0,0,0,0,0,0,0,0
0,0,51,-35,1920,596,-34,5,132,0,0,0,0,0,0,0,0,0,0,0
0,0,46,-42,1917,595,-32,5,118,0,0,0,0,0,0,0,0,0,0,0
0,0,49,-43,1921,596,-33,4,123,0,0,0,0,0,0,0,0,0,0,0
0,0,50,-42,1917,596,-31,8,127,0,0,0,0,0,0,0,0,0,0,0
0,0,45,-37,1914,597,-31,5,122,0,0,0,0,0,0,0,0,0,0,0
0,0,48,-37,1924,596,-31,4,133,0,0,0,0,0,0,0,0,0,0,0
0,0,41,-32,1934,595,-31,5,141,0,0,0,0,0,0,0,0,0,0,0
0,0,42,-39,1914,596,-30,5,117,0,0,0,0,0,0,0,0,0,0,0
0,0,47,-39,1915,597,-31,5,123,0,0,0,0,0,0,0,0,0,0,0
0,0,54,-45,1922,595,-33,4,126,0,0,0,0,0,0,0,0,0,0,0
0,0,43,-40,1924,597,-32,3,124,0,0,0,0,0,0,0,0,0,0,0
0,0,40,-42,1928,596,-33,3,121,0,0,0,0,0,0,0,0,0,0,0
0,0,47,-39,1919,597,-33,6,126,0,0,0,0,0,0,0,0,0,0,0
0,0,46,-34,1923,597,-32,3,132,0,0,0,0,0,0,0,0,0,0,0
0,0,44,-32,1910,597,-32,6,122,0,0,0,0,0,0,0,0,0,0,0
0,0,44,-40,1928,595,-32,3,127,0,0,0,0,0,0,0,0,0,0,0
0,0,49,-36,1920,596,-30,4,132,0,0,0,0,0,0,0,0,0,0,0
0,0,49,-39,1916,597,-32,3,123,0,0,0,0,0,0,0,0,0,0,0
0,0,39,-29,1919,595,-33,5,125,0,0,0,0,0,0,0,0,0,0,0
0,0,41,-22,1915,596,-32,5,132,0,0,0,0,0,0,0,0,0,0,0
0,0,51,-36,1916,595,-32,4,127,0,0,0,0,0,0,0,0,0,0,0
0,0,29,-32,1921,595,-33,4,113,0,0,0,0,0,0,0,0,0,0,0
0,0,42,-30,1927,597,-32,5,138,0,0,0,0,0,0,0,0,0,0,0
0,0,52,-42,1918,597,-32,5,127,0,0,0,0,0,0,0,0,0,0,0
0,0,44,-39,1906,595,-32,4,107,0,0,0,0,0,0,0,0,0,0,0
0,0,47,-40,1919,597,-32,4,124,0,0,0,0,0,0,0,0,0,0,0
0,0,51,-29,1913,595,-33,4,130,0,0,0,0,0,0,0,0,0,0,0
0,0,52,-31,1915,595,-33,5,132,0,0,0,0,0,0,0,0,0,0,0
0,0,45,-38,1915,595,-32,5,119,0,0,0,0,0,0,0,0,0,0,0
0,0,38,-32,1913,594,-32,3,113,0,0,0,0,0,0,0,0,0,0,0
0,0,44,-40,1915,596,-33,4,115,0,0,0,0,0,0,0,0,0,0,0
0,0,43,-34,1919,596,-32,4,125,0,0,0,0,0,0,0,0,0,0,0
0,0,46,-34,1915,597,-31,4,126,0,0,0,0,0,0,0,0,0,0,0
0,0,38,-43,1921,599,-33,5,116,0,0,0,0,0,0,0,0,0,0,0
0,0,46,-33,1929,596,-31,3,139,0,0,0,0,0,0,0,0,0,0,0
0,0,47,-32,1926,597,-32,5,140,0,0,0,0,0,0,0,0,0,0,0
0,0,46,-41,1921,595,-31,3,122,0,0,0,0,0,0,0,0,0,0,0
0,0,48,-34,1916,596,-33,6,128,0,0,0,0,0,0,0,0,0,0,0
0,0,45,-38,1917,595,-32,6,122,0,0,0,0,0,0,0,0,0,0,0
0,0,45,-29,1927,595,-33,6,140,0,0,0,0,0,0,0,0,0,0,0
0,0,49,-41,1929,596,-34,4,132,0,0,0,0,0,0,0,0,0,0,0
0,0,48,-36,1915,597,-32,6,127,0,0,0,0,0,0,0,0,0,0,0
0,0,48,-35,1919,596,-33,6,130,0,0,0,0,0,0,0,0,0,0,0
0,0,50,-39,1921,596,-33,3,127,0,0,0,0,0,0,0,0,0,0,0
0,0,43,-35,1914,596,-33,5,119,0,0,0,0,0,0,0,0,0,0,0
0,0,49,-32,1930,594,-31,3,142,0,0,0,0,0,0,0,0,0,0,0
0,0,46,-45,1932,595,-32,3,128,0,0,0,0,0,0,0,0,0,0,0
0,0,45,-29,1922,596,-33,5,135,0,0,0,0,0,0,0,0,0,0,0
0,0,51,-23,1915,596,-32,5,141,0,0,0,0,0,0,0,0,0,0,0
0,0,49,-34,1919,596,-32,6,133,0,0,0,0,0,0,0,0,0,0,0
0,0,47,-34,1928,594,-31,4,137,0,0,0,0,0,0,0,0,0,0,0
0,0,47,-35,1921,594,-32,3,127,0,0,0,0,0,0,0,0,0,0,0
0,0,46,-31,1913,597,-32,6,128,0,0,0,0,0,0,0,0,0,0,0
0,0,54,-34,1919,595,-33,4,134,0,0,0,0,0,0,0,0,0,0,0
0,0,41,-37,1919,596,-33,5,120,0,0,0,0,0,0,0,0,0,0,0
0,0,46,-36,1931,595,-32,6,139,0,0,0,0,0,0,0,0,0,0,0
0,0,44,-34,1929,596,-34,6,136,0,0,0,0,0,0,0,0,0,0,0
0,0,39,-38,1927,595,-32,4,124,0,0,0,0,0,0,0,0,0,0,0
0,0,48,-41,1918,596,-35,4,119,0,0,0,0,0,0,0,0,0,0,0
0,0,46,-37,1922,595,-33,6,128,0,0,0,0,0,0,0,0,0,0,0
0,0,42,-34,1919,595,-32,3,122,0,0,0,0,0,0,0,0,0,0,0
0,0,42,-35,1928,597,-33,3,131,0,0,0,0,0,0,0,0,0,0,0
0,0,42,-35,1923,596,-32,3,126,0,0,0,0,0,0,0,0,0,0,0
0,0,43,-39,1926,596,-31,3,127,0,0,0,0,0,0,0,0,0,0,0
0,0,40,-32,1921,596,-32,3,125,0,0,0,0,0,0,0,0,0,0,0
0,0,46,-32,1921,595,-33,5,131,0,0,0,0,0,0,0,0,0,0,0
0,0,45,-32,1925,593,-32,5,133,0,0,0,0,0,0,0,0,0,0,0
0,0,42,-42,1925,597,-32,4,123,0,0,0,0,0,0,0,0,0,0,0
0,0,44,-37,1919,595,-33,5,122,0,0,0,0,0,0,0,0,0,0,0
0,0,43,-35,1927,597,-32,6,135,0,0,0,0,0,0,0,0,0,0,0
0,0,49,-37,1924,595,-33,6,133,0,0,0,0,0,0,0,0,0,0,0
0,0,53,-39,1907,598,-32,5,121,0,0,0,0,0,0,0,0,0,0,0
0,0,48,-36,1909,596,-30,4,120,0,0,0,0,0,0,0,0,0,0,0
0,0,48,-36,1915,596,-34,5,123,0,0,0,0,0,0,0,0,0,0,0
0,0,42,-38,1922,595,-31,6,125,0,0,0,0,0,0,0,0,0,0,0
0,0,41,-39,1917,596,-30,5,119,0,0,0,0,0,0,0,0,0,0,0
0,0,47,-36,1917,598,-33,6,128,0,0,0,0,0,0,0,0,0,0,0
0,0,47,-35,1934,596,-31,3,143,0,0,0,0,0,0,0,0,0,0,0
0,0,42,-40,1923,596,-33,5,122,0,0,0,0,0,0,0,0,0,0,0
0,0,49,-40,1905,595,-33,7,112,0,0,0,0,0,0,0,0,0,0,0
0,0,42,-37,1914,594,-32,5,115,0,0,0,0,0,0,0,0,0,0,0
0,0,51,-41,1922,595,-32,6,130,0,0,0,0,0,0,0,0,0,0,0
0,0,46,-38,1919,596,-33,6,125,0,0,0,0,0,0,0,0,0,0,0
0,0,43,-32,1920,596,-32,3,127,0,0,0,0,0,0,0,0,0,0,0
0,0,46,-42,1916,595,-32,3,115,0,0,0,0,0,0,0,0,0,0,0
0,0,45,-40,1921,595,-32,4,122,0,0,0,0,0,0,0,0,0,0,0
0,0,50,-41,1925,596,-32,4,131,0,0,0,0,0,0,0,0,0,0,0
0,0,42,-36,1923,596,-34,5,125,0,0,0,0,0,0,0,0,0,0,0
0,0,47,-35,1913,595,-31,4,122,0,0,0,0,0,0,0,0,0,0,0
0,0,53,-37,1916,595,-32,5,129,0,0,0,0,0,0,0,0,0,0,0
0,0,47,-33,1918,596,-33,3,127,0,0,0,0,0,0,0,0,0,0,0
0,0,48,-43,1916,596,-32,6,120,0,0,0,0,0,0,0,0,0,0,0
0,0,43,-34,1921,597,-32,6,130,0,0,0,0,0,0,0,0,0,0,0
0,0,44,-32,1917,595,-33,5,125,0,0,0,0,0,0,0,0,0,0,0
0,0,43,-38,1918,596,-32,6,122,0,0,0,0,0,0,0,0,0,0,0
0,0,48,-32,1929,596,-32,4,142,0,0,0,0,0,0,0,0,0,0,0
0,0,45,-28,1930,597,-30,5,148,0,0,0,0,0,0,0,0,0,0,0
0,0,46,-38,1916,597,-31,4,123,0,0,0,0,0,0,0,0,0,0,0
0,0,43,-35,1917,596,-32,6,124,0,0,0,0,0,0,0,0,0,0,0
0,0,41,-38,1929,595,-32,5,129,0,0,0,0,0,0,0,0,0,0,0
0,0,42,-38,1926,597,-31,3,128,0,0,0,0,0,0,0,0,0,0,0
0,0,51,-32,1924,596,-31,3,140,0,0,0,0,0,0,0,0,0,0,0
0,0,48,-34,1916,598,-32,6,131,0,0,0,0,0,0,0,0,0,0,0
0,0,49,-35,1926,595,-32,6,138,0,0,0,0,0,0,0,0,0,0,0
0,0,40,-32,1919,596,-31,5,126,0,0,0,0,0,0,0,0,0,0,0
0,0,49,-43,1910,596,-33,6,114,0,0,0,0,0,0,0,0,0,0,0
0,0,42,-39,1919,597,-34,4,118,0,0,0,0,0,0,0,0,0,0,0
0,0,44,-30,1922,596,-32,5,134,0,0,0,0,0,0,0,0,0,0,0
0,0,37,-36,1934,598,-33,4,133,0,0,0,0,0,0,0,0,0,0,0
0,0,44,-42,1931,598,-31,5,134,0,0,0,0,0,0,0,0,0,0,0
0,0,49,-33,1919,596,-32,6,134,0,0,0,0,0,0,0,0,0,0,0
0,0,43,-36,1921,597,-32,4,126,0,0,0,0,0,0,0,0,0,0,0
0,0,46,-34,1906,598,-32,5,118,0,0,0,0,0,0,0,0,0,0,0
0,0,43,-31,1916,596,-33,3,123,0,0,0,0,0,0,0,0,0,0,0
0,0,47,-36,1911,597,-32,5,121,0,0,0,0,0,0,0,0,0,0,0
0,0,48,-43,1918,596,-32,5,121,0,0,0,0,0,0,0,0,0,0,0
0,0,45,-31,1915,596,-32,3,125,0,0,0,0,0,0,0,0,0,0,0
0,0,42,-32,1915,597,-33,5,123,0,0,0,0,0,0,0,0,0,0,0
0,0,46,-31,1911,596,-33,5,123,0,0,0,0,0,0,0,0,0,0,0
0,0,51,-43,1916,595,-32,5,121,0,0,0,0,0,0,0,0,0,0,0
0,0,46,-34,1920,595,-33,3,126,0,0,0,0,0,0,0,0,0,0,0
0,0,47,-40,1921,597,-33,5,126,0,0,0,0,0,0,0,0,0,0,0
0,0,50,-44,1917,596,-32,5,121,0,0,0,0,0,0,0,0,0,0,0
0,0,48,-33,1925,596,-32,5,138,0,0,0,0,0,0,0,0,0,0,0
0,0,45,-39,1914,596,-33,4,116,0,0,0,0,0,0,0,0,0,0,0
0,0,39,-35,1922,596,-33,3,121,0,0,0,0,0,0,0,0,0,0,0
0,0,36,-37,1925,596,-32,5,122,0,0,0,0,0,0,0,0,0,0,0
0,0,43,-31,1927,594,-31,4,135,0,0,0,0,0,0,0,0,0,0,0
0,0,43,-33,1930,596,-32,5,138,0,0,0,0,0,0,0,0,0,0,0
0,0,49,-42,1928,596,-31,4,133,0,0,0,0,0,0,0,0,0,0,0
0,0,49,-29,1936,593,-31,3,150,0,0,0,0,0,0,0,0,0,0,0
0,0,46,-33,1916,596,-35,3,122,0,0,0,0,0,0,0,0,0,0,0
0,0,46,-33,1920,595,-32,4,129,0,0,0,0,0,0,0,0,0,0,0
0,0,43,-32,1911,596,-33,6,120,0,0,0,0,0,0,0,0,0,0,0
0,0,47,-38,1917,595,-34,5,121,0,0,0,0,0,0,0,0,0,0,0
0,0,43,-36,1925,596,-32,5,130,0,0,0,0,0,0,0,0,0,0,0
0,0,51,-39,1906,596,-32,5,116,0,0,0,0,0,0,0,0,0,0,0
0,0,43,-35,1924,595,-31,5,130,0,0,0,0,0,0,0,0,0,0,0
0,0,48,-39,1918,597,-33,7,127,0,0,0,0,0,0,0,0,0,0,0
0,0,43,-42,1904,596,-33,7,104,0,0,0,0,0,0,0,0,0,0,0
0,0,34,-34,1915,598,-31,4,115,0,0,0,0,0,0,0,0,0,0,0
0,0,48,-30,1917,596,-33,6,133,0,0,0,0,0,0,0,0,0,0,0
0,0,48,-33,1922,597,-32,5,136,0,0,0,0,0,0,0,0,0,0,0
0,0,52,-40,1911,596,-32,4,120,0,0,0,0,0,0,0,0,0,0,0
0,0,43,-30,1913,597,-33,5,124,0,0,0,0,0,0,0,0,0,0,0
0,0,47,-36,1927,596,-33,5,135,0,0,0,0,0,0,0,0,0,0,0
0,0,47,-33,1927,595,-34,3,134,0,0,0,0,0,0,0,0,0,0,0
0,0,40,-41,1919,596,-32,6,117,0,0,0,0,0,0,0,0,0,0,0
0,0,39,-30,1924,596,-32,4,130,0,0,0,0,0,0,0,0,0,0,0
0,0,48,-34,1924,596,-32,5,136,0,0,0,0,0,0,0,0,0,0,0
0,0,49,-42,1926,596,-32,4,130,0,0,0,0,0,0,0,0,0,0,0
0,0,45,-41,1919,597,-31,3,121,0,0,0,0,0,0,0,0,0,0,0
0,0,40,-36,1928,596,-31,5,131,0,0,0,0,0,0,0,0,0,0,0
0,0,41,-41,1919,596,-30,4,118,0,0,0,0,0,0,0,0,0,0,0
0,0,44,-27,1925,594,-34,4,135,0,0,0,0,0,0,0,0,0,0,0
0,0,43,-33,1915,596,-34,5,121,0,0,0,0,0,0,0,0,0,0,0
0,0,48,-43,1926,597,-32,6,131,0,0,0,0,0,0,0,0,0,0,0
0,0,45,-31,1923,596,-33,5,134,0,0,0,0,0,0,0,0,0,0,0
0,0,41,-36,1920,596,-32,4,122,0,0,0,0,0,0,0,0,0,0,0
0,0,50,-34,1910,594,-33,5,121,0,0,0,0,0,0,0,0,0,0,0
0,0,45,-42,1921,596,-33,4,120,0,0,0,0,0,0,0,0,0,0,0
0,0,46,-47,1916,595,-31,5,113,0,0,0,0,0,0,0,0,0,0,0
0,0,50,-34,1918,595,-32,4,130,0,0,0,0,0,0,0,0,0,0,0
0,0,45,-45,1910,594,-32,5,106,0,0,0,0,0,0,0,0,0,0,0
0,0,49,-39,1919,595,-32,5,126,0,0,0,0,0,0,0,0,0,0,0
0,0,41,-32,1927,597,-33,5,134,0,0,0,0,0,0,0,0,0,0,0
0,0,44,-41,1925,596,-33,3,123,0,0,0,0,0,0,0,0,0,0,0
0,0,42,-36,1912,596,-32,3,114,0,0,0,0,0,0,0,0,0,0,0
0,0,46,-32,1916,596,-33,5,127,0,0,0,0,0,0,0,0,0,0,0
0,0,42,-43,1923,597,-34,4,118,0,0,0,0,0,0,0,0,0,0,0
0,0,46,-34,1923,596,-32,6,134,0,0,0,0,0,0,0,0,0,0,0
0,0,44,-41,1918,595,-32,6,119,0,0,0,0,0,0,0,0,0,0,0
0,0,49,-28,1922,597,-32,3,140,0,0,0,0,0,0,0,0,0,0,0
0,0,50,-32,1919,597,-32,4,135,0,0,0,0,0,0,0,0,0,0,0
0,0,42,-32,1917,597,-32,5,126,0,0,0,0,0,0,0,0,0,0,0
0,0,46,-35,1922,597,-33,5,131,0,0,0,0,0,0,0,0,0,0,0
0,0,49,-31,1914,597,-33,5,130,0,0,0,0,0,0,0,0,0,0,0
0,0,49,-38,1925,595,-32,6,134,0,0,0,0,0,0,0,0,0,0,0
0,0,47,-47,1916,595,-33,5,112,0,0,0,0,0,0,0,0,0,0,0
0,0,42,-41,1917,596,-33,5,115,0,0,0,0,0,0,0,0,0,0,0
0,0,38,-36,1910,595,-33,5,108,0,0,0,0,0,0,0,0,0,0,0
0,0,40,-38,1920,596,-33,5,119,0,0,0,0,0,0,0,0,0,0,0
0,0,44,-41,1927,596,-33,6,128,0,0,0,0,0,0,0,0,0,0,0
0,0,45,-38,1912,594,-32,4,114,0,0,0,0,0,0,0,0,0,0,0
0,0,47,-36,1912,597,-33,5,121,0,0,0,0,0,0,0,0,0,0,0
0,0,49,-39,1919,596,-32,5,127,0,0,0,0,0,0,0,0,0,0,0
0,0,41,-28,1923,597,-32,6,136,0,0,0,0,0,0,0,0,0,0,0
0,0,43,-43,1915,594,-33,6,111,0,0,0,0,0,0,0,0,0,0,0
0,0,42,-37,1920,597,-31,5,125,0,0,0,0,0,0,0,0,0,0,0
0,0,53,-42,1923,597,-33,5,132,0,0,0,0,0,0,0,0,0,0,0
0,0,47,-39,1921,597,-31,5,129,0,0,0,0,0,0,0,0,0,0,0
0,0,51,-37,1927,596,-31,5,140,0,0,0,0,0,0,0,0,0,0,0
0,0,48,-37,1926,597,-31,5,137,0,0,0,0,0,0,0,0,0,0,0
0,0,49,-42,1928,596,-31,6,135,0,0,0,0,0,0,0,0,0,0,0
0,0,44,-35,1928,596,-33,4,133,0,0,0,0,0,0,0,0,0,0,0
0,0,44,-33,1920,595,-32,3,126,0,0,0,0,0,0,0,0,0,0,0
0,0,37,-31,1928,596,-32,4,131,0,0,0,0,0,0,0,0,0,0,0
0,0,49,-31,1914,595,-31,4,129,0,0,0,0,0,0,0,0,0,0,0
0,0,44,-34,1918,595,-30,5,127,0,0,0,0,0,0,0,0,0,0,0
0,0,49,-38,1909,597,-31,5,120,0,0,0,0,0,0,0,0,0,0,0
0,0,50,-43,1915,598,-32,5,122,0,0,0,0,0,0,0,0,0,0,0
0,0,45,-36,1923,598,-32,4,131,0,0,0,0,0,0,0,0,0,0,0
0,0,45,-41,1922,596,-34,5,122,0,0,0,0,0,0,0,0,0,0,0
0,0,47,-41,1912,595,-34,7,115,0,0,0,0,0,0,0,0,0,0,0
0,0,50,-34,1912,595,-30,5,127,0,0,0,0,0,0,0,0,0,0,0
0,0,51,-36,1924,598,-32,5,139,0,0,0,0,0,0,0,0,0,0,0
0,0,47,-37,1922,595,-31,4,129,0,0,0,0,0,0,0,0,0,0,0
0,0,45,-37,1914,596,-32,4,119,0,0,0,0,0,0,0,0,0,0,0
0,0,48,-41,1920,596,-31,6,127,0,0,0,0,0,0,0,0,0,0,0
0,0,51,-33,1926,598,-31,5,145,0,0,0,0,0,0,0,0,0,0,0
0,0,46,-38,1918,597,-32,4,124,0,0,0,0,0,0,0,0,0,0,0
0,0,47,-37,1914,598,-33,4,122,0,0,0,0,0,0,0,0,0,0,0
0,0,52,-35,1921,595,-31,5,136,0,0,0,0,0,0,0,0,0,0,0
0,0,46,-33,1915,596,-34,5,124,0,0,0,0,0,0,0,0,0,0,0
0,0,41,-40,1930,595,-33,5,127,0,0,0,0,0,0,0,0,0,0,0
0,0,45,-38,1911,596,-32,6,117,0,0,0,0,0,0,0,0,0,0,0
0,0,52,-42,1915,596,-32,4,122,0,0,0,0,0,0,0,0,0,0,0
0,0,43,-30,1912,596,-32,5,123,0,0,0,0,0,0,0,0,0,0,0
0,0,49,-32,1902,597,-31,4,118,0,0,0,0,0,0,0,0,0,0,0
0,0,44,-41,1912,598,-31,4,115,0,0,0,0,0,0,0,0,0,0,0
0,0,51,-39,1923,596,-33,5,132,0,0,0,0,0,0,0,0,0,0,0
0,0,42,-33,1924,595,-31,6,132,0,0,0,0,0,0,0,0,0,0,0
0,0,46,-34,1914,596,-31,5,125,0,0,0,0,0,0,0,0,0,0,0
0,0,42,-37,1916,595,-32,6,119,0,0,0,0,0,0,0,0,0,0,0
0,0,45,-43,1915,596,-33,4,113,0,0,0,0,0,0,0,0,0,0,0
0,0,45,-38,1925,596,-31,3,129,0,0,0,0,0,0,0,0,0,0,0
0,0,45,-31,1920,596,-33,5,131,0,0,0,0,0,0,0,0,0,0,0
0,0,41,-34,1918,597,-34,4,121,0,0,0,0,0,0,0,0,0,0,0
0,0,41,-35,1923,597,-32,5,128,0,0,0,0,0,0,0,0,0,0,0
0,0,41,-39,1920,595,-31,6,121,0,0,0,0,0,0,0,0,0,0,0
0,0,45,-35,1923,594,-32,4,128,0,0,0,0,0,0,0,0,0,0,0
0,0,47,-27,1915,595,-31,5,133,0,0,0,0,0,0,0,0,0,0,0
0,0,44,-41,1914,596,-31,6,117,0,0,0,0,0,0,0,0,0,0,0
0,0,52,-39,1915,597,-32,4,126,0,0,0,0,0,0,0,0,0,0,0
0,0,46,-33,1916,596,-32,5,127,0,0,0,0,0,0,0,0,0,0,0
0,0,45,-31,1918,596,-32,5,130,0,0,0,0,0,0,0,0,0,0,0
0,0,42,-38,1914,596,-33,4,114,0,0,0,0,0,0,0,0,0,0,0
0,0,49,-41,1910,596,-31,5,117,0,0,0,0,0,0,0,0,0,0,0
0,0,56,-38,1922,595,-30,6,140,0,0,0,0,0,0,0,0,0,0,0
0,0,49,-35,1923,597,-32,5,136,0,0,0,0,0,0,0,0,0,0,0
0,0,43,-30,1916,596,-33,4,125,0,0,0,0,0,0,0,0,0,0,0
0,0,47,-34,1923,597,-33,4,133,0,0,0,0,0,0,0,0,0,0,0
0,0,49,-31,1920,595,-33,5,134,0,0,0,0,0,0,0,0,0,0,0
0,0,43,-36,1916,596,-32,5,121,0,0,0,0,0,0,0,0,0,0,0
0,0,40,-39,1916,596,-32,5,115,0,0,0,0,0,0,0,0,0,0,0
0,0,45,-39,1917,597,-32,5,122,0,0,0,0,0,0,0,0,0,0,0
0,0,46,-35,1927,595,-32,4,134,0,0,0,0,0,0,0,0,0,0,0
0,0,39,-39,1914,595,-33,5,110,0,0,0,0,0,0,0,0,0,0,0
0,0,45,-39,1922,596,-32,5,126,0,0,0,0,0,0,0,0,0,0,0
0,0,46,-26,1921,598,-31,7,144,0,0,0,0,0,0,0,0,0,0,0
0,0,44,-38,1920,597,-30,4,126,0,0,0,0,0,0,0,0,0,0,0
0,0,47,-34,1921,597,-32,5,133,0,0,0,0,0,0,0,0,0,0,0
0,0,45,-33,1920,596,-31,5,131,0,0,0,0,0,0,0,0,0,0,0
0,0,44,-38,1926,596,-31,5,131,0,0,0,0,0,0,0,0,0,0,0
0,0,45,-35,1923,596,-33,4,129,0,0,0,0,0,0,0,0,0,0,0
0,0,46,-40,1924,596,-34,5,126,0,0,0,0,0,0,0,0,0,0,0
0,0,43,-28,1930,598,-34,3,141,0,0,0,0,0,0,0,0,0,0,0
0,0,46,-36,1920,597,-33,4,127,0,0,0,0,0,0,0,0,0,0,0
0,0,41,-28,1927,596,-32,6,139,0,0,0,0,0,0,0,0,0,0,0
0,0,43,-36,1926,597,-32,5,132,0,0,0,0,0,0,0,0,0,0,0
0,0,39,-29,1926,595,-32,5,133,0,0,0,0,0,0,0,0,0,0,0
0,0,40,-38,1917,596,-34,4,114,0,0,0,0,0,0,0,0,0,0,0
0,0,38,-32,1935,596,-32,4,138,0,0,0,0,0,0,0,0,0,0,0
0,0,46,-36,1919,597,-34,6,127,0,0,0,0,0,0,0,0,0,0,0
0,0,42,-28,1911,596,-32,5,123,0,0,0,0,0,0,0,0,0,0,0
0,0,42,-33,1913,595,-30,4,120,0,0,0,0,0,0,0,0,0,0,0
0,0,53,-30,1913,596,-32,6,135,0,0,0,0,0,0,0,0,0,0,0
0,0,55,-36,1921,595,-31,4,137,0,0,0,0,0,0,0,0,0,0,0
0,0,46,-27,1914,596,-32,4,130,0,0,0,0,0,0,0,0,0,0,0
0,0,42,-33,1920,595,-31,5,127,0,0,0,0,0,0,0,0,0,0,0
0,0,49,-37,1921,597,-31,5,133,0,0,0,0,0,0,0,0,0,0,0
0,0,50,-40,1919,595,-33,4,124,0,0,0,0,0,0,0,0,0,0,0
0,0,40,-38,1910,595,-32,6,110,0,0,0,0,0,0,0,0,0,0,0
0,0,49,-38,1917,596,-33,4,124,0,0,0,0,0,0,0,0,0,0,0
0,0,46,-36,1918,596,-32,5,126,0,0,0,0,0,0,0,0,0,0,0
0,0,49,-38,1922,596,-32,5,131,0,0,0,0,0,0,0,0,0,0,0
0,0,46,-32,1922,597,-34,4,132,0,0,0,0,0,0,0,0,0,0,0
0,0,45,-35,1913,596,-32,2,118,0,0,0,0,0,0,0,0,0,0,0
0,0,45,-37,1916,596,-32,3,120,0,0,0,0,0,0,0,0,0,0,0
0,0,49,-37,1912,597,-33,3,120,0,0,0,0,0,0,0,0,0,0,0
0,0,49,-34,1924,596,-33,4,135,0,0,0,0,0,0,0,0,0,0,0
0,0,38,-34,1932,597,-32,6,136,0,0,0,0,0,0,0,0,0,0,0
0,0,50,-35,1927,597,-34,4,138,0,0,0,0,0,0,0,0,0,0,0
0,0,49,-31,1931,596,-34,4,144,0,0,0,0,0,0,0,0,0,0,0
0,0,49,-33,1916,595,-30,5,131,0,0,0,0,0,0,0,0,0,0,0
0,0,46,-43,1925,596,-33,4,124,0,0,0,0,0,0,0,0,0,0,0
0,0,41,-32,1910,597,-30,6,121,0,0,0,0,0,0,0,0,0,0,0
0,0,48,-45,1920,595,-32,5,120,0,0,0,0,0,0,0,0,0,0,0
0,0,45,-45,1919,596,-32,6,118,0,0,0,0,0,0,0,0,0,0,0
0,0,35,-36,1920,597,-33,6,118,0,0,0,0,0,0,0,0,0,0,0
0,0,42,-37,1915,594,-32,3,114,0,0,0,0,0,0,0,0,0,0,0
0,0,46,-35,1914,595,-33,4,120,0,0,0,0,0,0,0,0,0,0,0
0,0,42,-42,1925,597,-33,5,123,0,0,0,0,0,0,0,0,0,0,0
0,0,46,-44,1920,596,-32,5,120,0,0,0,0,0,0,0,0,0,0,0
0,0,45,-32,1919,596,-33,4,128,0,0,0,0,0,0,0,0,0,0,0
0,0,42,-39,1921,595,-33,3,118,0,0,0,0,0,0,0,0,0,0,0
0,0,47,-40,1926,597,-31,5,133,0,0,0,0,0,0,0,0,0,0,0
0,0,43,-44,1924,594,-30,6,122,0,0,0,0,0,0,0,0,0,0,0
0,0,45,-35,1916,596,-32,4,123,0,0,0,0,0,0,0,0,0,0,0
0,0,40,-36,1922,596,-31,7,127,0,0,0,0,0,0,0,0,0,0,0
0,0,47,-40,1927,596,-34,4,129,0,0,0,0,0,0,0,0,0,0,0
0,0,47,-40,1923,596,-33,4,126,0,0,0,0,0,0,0,0,0,0,0
0,0,46,-31,1910,595,-32,5,122,0,0,0,0,0,0,0,0,0,0,0
0,0,42,-36,1930,596,-32,5,134,0,0,0,0,0,0,0,0,0,0,0
0,0,47,-37,1922,596,-34,5,128,0,0,0,0,0,0,0,0,0,0,0
0,0,45,-36,1924,597,-32,4,131,0,0,0,0,0,0,0,0,0,0,0
0,0,51,-36,1917,597,-31,4,131,0,0,0,0,0,0,0,0,0,0,0
0,0,49,-37,1921,598,-33,6,133,0,0,0,0,0,0,0,0,0,0,0
0,0,45,-37,1921,596,-32,5,127,0,0,0,0,0,0,0,0,0,0,0
0,0,40,-33,1914,595,-32,5,118,0,0,0,0,0,0,0,0,0,0,0
0,0,43,-38,1925,595,-33,5,126,0,0,0,0,0,0,0,0,0,0,0
0,0,50,-39,1918,596,-31,5,128,0,0,0,0,0,0,0,0,0,0,0
0,0,46,-35,1917,593,-32,4,122,0,0,0,0,0,0,0,0,0,0,0
0,0,50,-32,1927,595,-32,2,139,0,0,0,0,0,0,0,0,0,0,0
0,0,48,-28,1914,596,-31,5,133,0,0,0,0,0,0,0,0,0,0,0
0,0,48,-33,1921,596,-31,4,134,0,0,0,0,0,0,0,0,0,0,0
0,0,39,-40,1918,596,-33,4,113,0,0,0,0,0,0,0,0,0,0,0
0,0,45,-36,1919,595,-33,5,124,0,0,0,0,0,0,0,0,0,0,0
0,0,44,-37,1923,596,-32,6,129,0,0,0,0,0,0,0,0,0,0,0
0,0,41,-36,1919,597,-31,5,124,0,0,0,0,0,0,0,0,0,0,0
0,0,48,-37,1930,596,-31,4,139,0,0,0,0,0,0,0,0,0,0,0
0,0,50,-38,1930,595,-32,4,138,0,0,0,0,0,0,0,0,0,0,0
0,0,44,-36,1925,596,-32,4,130,0,0,0,0,0,0,0,0,0,0,0
0,0,51,-38,1918,596,-33,4,127,0,0,0,0,0,0,0,0,0,0,0
0,0,52,-46,1919,597,-32,5,124,0,0,0,0,0,0,0,0,0,0,0
0,0,50,-35,1912,596,-33,6,125,0,0,0,0,0,0,0,0,0,0,0
0,0,44,-29,1917,598,-31,4,132,0,0,0,0,0,0,0,0,0,0,0
0,0,46,-41,1931,596,-33,6,134,0,0,0,0,0,0,0,0,0,0,0
0,0,49,-36,1922,595,-33,6,132,0,0,0,0,0,0,0,0,0,0,0
0,0,42,-36,1928,598,-32,3,132,0,0,0,0,0,0,0,0,0,0,0
0,0,46,-36,1919,598,-31,6,131,0,0,0,0,0,0,0,0,0,0,0
0,0,41,-35,1919,598,-31,5,126,0,0,0,0,0,0,0,0,0,0,0
0,0,44,-34,1922,597,-31,4,131,0,0,0,0,0,0,0,0,0,0,0
0,0,46,-35,1920,597,-31,4,130,0,0,0,0,0,0,0,0,0,0,0
0,0,47,-30,1921,597,-31,4,137,0,0,0,0,0,0,0,0,0,0,0
0,0,42,-36,1915,597,-32,5,120,0,0,0,0,0,0,0,0,0,0,0
0,0,47,-41,1916,595,-31,4,119,0,0,0,0,0,0,0,0,0,0,0
0,0,50,-41,1922,597,-31,5,131,0,0,0,0,0,0,0,0,0,0,0
0,0,45,-43,1928,596,-34,5,126,0,0,0,0,0,0,0,0,0,0,0
0,0,48,-39,1918,594,-31,5,124,0,0,0,0,0,0,0,0,0,0,0
0,0,44,-42,1922,595,-32,3,119,0,0,0,0,0,0,0,0,0,0,0
0,0,55,-27,1914,596,-32,5,140,0,0,0,0,0,0,0,0,0,0,0
0,0,50,-40,1917,596,-32,3,123,0,0,0,0,0,0,0,0,0,0,0
0,0,44,-38,1907,596,-32,4,110,0,0,0,0,0,0,0,0,0,0,0
0,0,45,-35,1913,597,-32,3,120,0,0,0,0,0,0,0,0,0,0,0
0,0,45,-34,1920,595,-32,4,127,0,0,0,0,0,0,0,0,0,0,0
0,0,40,-39,1913,596,-32,5,112,0,0,0,0,0,0,0,0,0,0,0
0,0,42,-40,1915,597,-34,4,113,0,0,0,0,0,0,0,0,0,0,0
0,0,52,-34,1916,596,-33,4,130,0,0,0,0,0,0,0,0,0,0,0
0,0,56,-36,1925,595,-31,6,144,0,0,0,0,0,0,0,0,0,0,0
0,0,44,-34,1915,595,-32,5,122,0,0,0,0,0,0,0,0,0,0,0
0,0,41,-40,1921,596,-32,4,119,0,0,0,0,0,0,0,0,0,0,0
0,0,51,-37,1916,595,-32,5,127,0,0,0,0,0,0,0,0,0,0,0
0,0,44,-41,1914,598,-32,6,118,0,0,0,0,0,0,0,0,0,0,0
0,0,46,-34,1924,596,-33,5,133,0,0,0,0,0,0,0,0,0,0,0
0,0,41,-30,1916,596,-34,5,123,0,0,0,0,0,0,0,0,0,0,0
0,0,48,-30,1919,596,-34,4,132,0,0,0,0,0,0,0,0,0,0,0
0,0,40,-34,1921,597,-33,4,124,0,0,0,0,0,0,0,0,0,0,0
0,0,42,-29,1916,597,-33,6,128,0,0,0,0,0,0,0,0,0,0,0
0,0,49,-36,1926,595,-33,5,135,0,0,0,0,0,0,0,0,0,0,0
0,0,47,-40,1920,594,-33,4,121,0,0,0,0,0,0,0,0,0,0,0
0,0,47,-40,1924,596,-33,4,127,0,0,0,0,0,0,0,0,0,0,0
0,0,43,-36,1927,596,-32,4,131,0,0,0,0,0,0,0,0,0,0,0
0,0,43,-38,1925,597,-32,5,129,0,0,0,0,0,0,0,0,0,0,0
0,0,44,-34,1922,598,-32,5,132,0,0,0,0,0,0,0,0,0,0,0
0,0,48,-41,1919,597,-33,4,123,0,0,0,0,0,0,0,0,0,0,0
0,0,49,-33,1921,596,-33,5,134,0,0,0,0,0,0,0,0,0,0,0
0,0,52,-37,1923,597,-33,3,134,0,0,0,0,0,0,0,0,0,0,0
0,0,52,-33,1921,596,-34,4,135,0,0,0,0,0,0,0,0,0,0,0
0,0,36,-36,1923,597,-32,6,123,0,0,0,0,0,0,0,0,0,0,0
0,0,45,-40,1926,596,-32,4,128,0,0,0,0,0,0,0,0,0,0,0
0,0,51,-34,1916,596,-30,5,133,0,0,0,0,0,0,0,0,0,0,0
0,0,44,-37,1915,598,-32,5,122,0,0,0,0,0,0,0,0,0,0,0
0,0,39,-38,1919,598,-33,5,119,0,0,0,0,0,0,0,0,0,0,0
0,0,42,-37,1914,598,-33,6,119,0,0,0,0,0,0,0,0,0,0,0
0,0,49,-40,1919,596,-32,7,128,0,0,0,0,0,0,0,0,0,0,0
0,0,43,-44,1920,596,-32,5,117,0,0,0,0,0,0,0,0,0,0,0
0,0,40,-43,1929,595,-33,5,122,0,0,0,0,0,0,0,0,0,0,0
0,0,50,-34,1930,598,-33,5,145,0,0,0,0,0,0,0,0,0,0,0
0,0,40,-35,1931,598,-31,5,137,0,0,0,0,0,0,0,0,0,0,0
0,0,43,-38,1916,594,-32,4,116,0,0,0,0,0,0,0,0,0,0,0
0,0,53,-29,1914,594,-31,4,134,0,0,0,0,0,0,0,0,0,0,0
0,0,47,-33,1912,596,-32,4,123,0,0,0,0,0,0,0,0,0,0,0
0,0,44,-34,1924,596,-32,3,130,0,0,0,0,0,0,0,0,0,0,0
0,0,49,-34,1923,596,-32,5,136,0,0,0,0,0,0,0,0,0,0,0
0,0,42,-42,1920,597,-32,3,117,0,0,0,0,0,0,0,0,0,0,0
0,0,52,-37,1920,595,-32,4,131,0,0,0,0,0,0,0,0,0,0,0
0,0,45,-33,1923,597,-31,3,133,0,0,0,0,0,0,0,0,0,0,0
0,0,40,-38,1915,597,-33,5,115,0,0,0,0,0,0,0,0,0,0,0
0,0,42,-42,1923,595,-33,4,118,0,0,0,0,0,0,0,0,0,0,0
0,0,51,-32,1917,595,-32,5,133,0,0,0,0,0,0,0,0,0,0,0
0,0,42,-34,1925,597,-33,5,131,0,0,0,0,0,0,0,0,0,0,0
0,0,40,-35,1911,594,-32,6,113,0,0,0,0,0,0,0,0,0,0,0
0,0,45,-39,1923,595,-32,4,125,0,0,0,0,0,0,0,0,0,0,0
0,0,44,-35,1919,597,-33,5,126,0,0,0,0,0,0,0,0,0,0,0
0,0,44,-35,1918,597,-32,4,125,0,0,0,0,0,0,0,0,0,0,0
0,0,43,-36,1920,596,-32,5,125,0,0,0,0,0,0,0,0,0,0,0
0,0,35,-32,1917,595,-33,6,117,0,0,0,0,0,0,0,0,0,0,0
0,0,41,-38,1932,597,-33,8,136,0,0,0,0,0,0,0,0,0,0,0
0,0,41,-28,1920,595,-33,4,128,0,0,0,0,0,0,0,0,0,0,0
0,0,52,-36,1915,596,-33,3,126,0,0,0,0,0,0,0,0,0,0,0
0,0,48,-41,1914,596,-32,3,117,0,0,0,0,0,0,0,0,0,0,0
0,0,42,-37,1920,597,-32,4,123,0,0,0,0,0,0,0,0,0,0,0
0,0,54,-40,1914,596,-31,5,127,0,0,0,0,0,0,0,0,0,0,0
0,0,47,-30,1908,593,-31,5,121,0,0,0,0,0,0,0,0,0,0,0
0,0,49,-38,1919,594,-32,5,126,0,0,0,0,0,0,0,0,0,0,0
0,0,45,-39,1914,596,-32,4,117,0,0,0,0,0,0,0,0,0,0,0
0,0,50,-33,1919,595,-32,5,133,0,0,0,0,0,0,0,0,0,0,0
0,0,49,-35,1920,596,-33,6,132,0,0,0,0,0,0,0,0,0,0,0
0,0,51,-33,1917,596,-33,5,132,0,0,0,0,0,0,0,0,0,0,0
0,0,45,-37,1920,596,-33,4,124,0,0,0,0,0,0,0,0,0,0,0
0,0,44,-37,1924,596,-33,2,125,0,0,0,0,0,0,0,0,0,0,0
0,0,51,-40,1920,595,-31,5,129,0,0,0,0,0,0,0,0,0,0,0
0,0,43,-40,1902,594,-32,5,101,0,0,0,0,0,0,0,0,0,0,0
0,0,46,-46,1914,596,-32,4,111,0,0,0,0,0,0,0,0,0,0,0
0,0,49,-41,1914,596,-32,4,119,0,0,0,0,0,0,0,0,0,0,0
0,0,48,-41,1915,595,-34,5,117,0,0,0,0,0,0,0,0,0,0,0
0,0,52,-37,1922,596,-34,6,134,0,0,0,0,0,0,0,0,0,0,0
0,0,46,-26,1913,596,-32,4,130,0,0,0,0,0,0,0,0,0,0,0
0,0,46,-33,1915,598,-32,4,127,0,0,0,0,0,0,0,0,0,0,0
0,0,53,-32,1925,596,-33,5,143,0,0,0,0,0,0,0,0,0,0,0
0,0,47,-32,1918,596,-34,4,128,0,0,0,0,0,0,0,0,0,0,0
0,0,47,-39,1921,596,-32,6,128,0,0,0,0,0,0,0,0,0,0,0
0,0,49,-37,1920,595,-32,4,128,0,0,0,0,0,0,0,0,0,0,0
0,0,52,-47,1918,598,-33,5,122,0,0,0,0,0,0,0,0,0,0,0
0,0,50,-35,1920,598,-33,5,134,0,0,0,0,0,0,0,0,0,0,0
0,0,46,-37,1924,598,-31,6,135,0,0,0,0,0,0,0,0,0,0,0
0,0,52,-36,1921,598,-34,3,133,0,0,0,0,0,0,0,0,0,0,0
0,0,43,-38,1922,597,-33,5,125,0,0,0,0,0,0,0,0,0,0,0
0,0,39,-30,1930,596,-31,5,138,0,0,0,0,0,0,0,0,0,0,0
0,0,46,-35,1922,596,-32,5,131,0,0,0,0,0,0,0,0,0,0,0
0,0,50,-42,1922,598,-32,5,130,0,0,0,0,0,0,0,0,0,0,0
0,0,47,-39,1925,596,-32,5,131,0,0,0,0,0,0,0,0,0,0,0
0,0,52,-36,1923,597,-33,6,138,0,0,0,0,0,0,0,0,0,0,0
0,0,52,-39,1924,596,-33,5,134,0,0,0,0,0,0,0,0,0,0,0
0,0,52,-35,1924,596,-33,5,138,0,0,0,0,0,0,0,0,0,0,0
0,0,36,-42,1931,597,-32,5,124,0,0,0,0,0,0,0,0,0,0,0
0,0,40,-39,1916,595,-32,5,114,0,0,0,0,0,0,0,0,0,0,0
0,0,49,-34,1918,596,-33,6,131,0,0,0,0,0,0,0,0,0,0,0
0,0,46,-30,1918,597,-33,4,131,0,0,0,0,0,0,0,0,0,0,0
0,0,47,-34,1910,595,-33,4,118,0,0,0,0,0,0,0,0,0,0,0
0,0,42,-31,1917,594,-33,5,123,0,0,0,0,0,0,0,0,0,0,0
0,0,49,-37,1920,595,-32,5,129,0,0,0,0,0,0,0,0,0,0,0
0,0,52,-40,1913,596,-32,4,122,0,0,0,0,0,0,0,0,0,0,0
0,0,47,-34,1915,597,-32,6,128,0,0,0,0,0,0,0,0,0,0,0
0,0,52,-35,1911,597,-32,6,128,0,0,0,0,0,0,0,0,0,0,0
0,0,45,-40,1921,594,-32,5,122,0,0,0,0,0,0,0,0,0,0,0
0,0,45,-34,1917,596,-32,5,126,0,0,0,0,0,0,0,0,0,0,0
0,0,42,-28,1925,598,-33,4,137,0,0,0,0,0,0,0,0,0,0,0
0,0,54,-30,1926,596,-31,4,148,0,0,0,0,0,0,0,0,0,0,0
0,0,46,-33,1926,596,-32,4,136,0,0,0,0,0,0,0,0,0,0,0
0,0,38,-33,1921,597,-31,5,126,0,0,0,0,0,0,0,0,0,0,0
0,0,51,-33,1926,597,-32,4,142,0,0,0,0,0,0,0,0,0,0,0
0,0,45,-34,1916,598,-34,4,124,0,0,0,0,0,0,0,0,0,0,0
0,0,48,-41,1921,597,-33,6,127,0,0,0,0,0,0,0,0,0,0,0
0,0,46,-38,1921,595,-31,5,127,0,0,0,0,0,0,0,0,0,0,0
0,0,46,-40,1915,596,-31,5,120,0,0,0,0,0,0,0,0,0,0,0
0,0,46,-40,1913,596,-32,3,115,0,0,0,0,0,0,0,0,0,0,0
0,0,45,-44,1917,595,-33,5,114,0,0,0,0,0,0,0,0,0,0,0
0,0,48,-40,1908,596,-34,4,111,0,0,0,0,0,0,0,0,0,0,0
0,0,46,-32,1925,595,-33,5,135,0,0,0,0,0,0,0,0,0,0,0
0,0,44,-31,1910,595,-34,4,117,0,0,0,0,0,0,0,0,0,0,0
0,0,48,-37,1917,597,-32,5,127,0,0,0,0,0,0,0,0,0,0,0
0,0,52,-35,1920,598,-31,5,138,0,0,0,0,0,0,0,0,0,0,0
0,0,52,-37,1913,597,-33,5,126,0,0,0,0,0,0,0,0,0,0,0
0,0,49,-38,1915,596,-32,4,123,0,0,0,0,0,0,0,0,0,0,0
0,0,50,-29,1923,596,-34,5,140,0,0,0,0,0,0,0,0,0,0,0
0,0,45,-41,1915,594,-33,4,113,0,0,0,0,0,0,0,0,0,0,0
0,0,45,-39,1921,594,-33,4,121,0,0,0,0,0,0,0,0,0,0,0
0,0,48,-39,1916,597,-33,4,122,0,0,0,0,0,0,0,0,0,0,0
0,0,50,-38,1924,596,-32,5,134,0,0,0,0,0,0,0,0,0,0,0
0,0,51,-34,1921,595,-31,4,135,0,0,0,0,0,0,0,0,0,0,0
0,0,50,-39,1922,595,-31,2,128,0,0,0,0,0,0,0,0,0,0,0
0,0,44,-33,1925,596,-32,5,134,0,0,0,0,0,0,0,0,0,0,0
0,0,44,-38,1927,595,-34,5,128,0,0,0,0,0,0,0,0,0,0,0
0,0,46,-39,1925,595,-31,5,130,0,0,0,0,0,0,0,0,0,0,0
0,0,46,-42,1930,596,-32,6,133,0,0,0,0,0,0,0,0,0,0,0
0,0,47,-36,1912,596,-31,4,121,0,0,0,0,0,0,0,0,0,0,0
0,0,47,-28,1920,596,-34,4,134,0,0,0,0,0,0,0,0,0,0,0
0,0,44,-34,1927,597,-33,5,135,0,0,0,0,0,0,0,0,0,0,0
0,0,43,-35,1908,596,-34,4,111,0,0,0,0,0,0,0,0,0,0,0
0,0,50,-36,1926,597,-31,5,140,0,0,0,0,0,0,0,0,0,0,0
0,0,38,-32,1912,595,-32,4,114,0,0,0,0,0,0,0,0,0,0,0
0,0,40,-35,1918,596,-31,5,122,0,0,0,0,0,0,0,0,0,0,0
0,0,41,-36,1934,596,-32,3,135,0,0,0,0,0,0,0,0,0,0,0
0,0,45,-34,1926,597,-34,5,134,0,0,0,0,0,0,0,0,0,0,0
0,0,43,-31,1914,594,-32,6,123,0,0,0,0,0,0,0,0,0,0,0
0,0,46,-37,1932,598,-33,5,140,0,0,0,0,0,0,0,0,0,0,0
0,0,43,-41,1917,596,-32,4,116,0,0,0,0,0,0,0,0,0,0,0
0,0,43,-34,1918,595,-32,4,123,0,0,0,0,0,0,0,0,0,0,0
0,0,47,-38,1926,595,-31,3,131,0,0,0,0,0,0,0,0,0,0,0
0,0,50,-36,1920,596,-32,4,131,0,0,0,0,0,0,0,0,0,0,0
0,0,50,-34,1912,593,-32,3,121,0,0,0,0,0,0,0,0,0,0,0
0,0,43,-36,1914,596,-32,4,118,0,0,0,0,0,0,0,0,0,0,0
0,0,46,-40,1919,597,-31,3,123,0,0,0,0,0,0,0,0,0,0,0
0,0,50,-33,1917,597,-31,6,135,0,0,0,0,0,0,0,0,0,0,0
0,0,44,-41,1911,594,-33,5,109,0,0,0,0,0,0,0,0,0,0,0
0,0,42,-32,1913,594,-33,4,117,0,0,0,0,0,0,0,0,0,0,0
0,0,41,-38,1915,596,-31,5,117,0,0,0,0,0,0,0,0,0,0,0
0,0,38,-32,1911,595,-32,5,114,0,0,0,0,0,0,0,0,0,0,0
0,0,49,-42,1917,597,-31,5,124,0,0,0,0,0,0,0,0,0,0,0
0,0,46,-40,1914,596,-31,4,118,0,0,0,0,0,0,0,0,0,0,0
0,0,45,-38,1926,595,-32,5,130,0,0,0,0,0,0,0,0,0,0,0
0,0,46,-37,1925,596,-31,4,132,0,0,0,0,0,0,0,0,0,0,0
0,0,47,-39,1920,596,-31,4,126,0,0,0,0,0,0,0,0,0,0,0
0,0,41,-35,1919,596,-32,5,123,0,0,0,0,0,0,0,0,0,0,0
0,0,43,-44,1926,595,-32,4,121,0,0,0,0,0,0,0,0,0,0,0
0,0,41,-35,1915,596,-32,5,119,0,0,0,0,0,0,0,0,0,0,0
0,0,48,-32,1916,595,-32,6,130,0,0,0,0,0,0,0,0,0,0,0
0,0,45,-32,1928,595,-33,4,136,0,0,0,0,0,0,0,0,0,0,0
0,0,41,-33,1920,595,-33,4,123,0,0,0,0,0,0,0,0,0,0,0
0,0,42,-38,1920,595,-32,5,121,0,0,0,0,0,0,0,0,0,0,0
0,0,45,-40,1921,595,-33,6,123,0,0,0,0,0,0,0,0,0,0,0
0,0,54,-39,1921,596,-32,4,133,0,0,0,0,0,0,0,0,0,0,0
0,0,42,-36,1909,598,-31,5,116,0,0,0,0,0,0,0,0,0,0,0
0,0,38,-30,1925,596,-34,5,129,0,0,0,0,0,0,0,0,0,0,0
0,0,45,-34,1923,596,-33,7,133,0,0,0,0,0,0,0,0,0,0,0
0,0,43,-38,1918,595,-33,5,119,0,0,0,0,0,0,0,0,0,0,0
0,0,46,-42,1919,597,-32,4,121,0,0,0,0,0,0,0,0,0,0,0
0,0,42,-43,1924,597,-33,6,122,0,0,0,0,0,0,0,0,0,0,0
0,0,45,-38,1924,596,-31,5,130,0,0,0,0,0,0,0,0,0,0,0
0,0,41,-36,1922,596,-31,5,126,0,0,0,0,0,0,0,0,0,0,0
0,0,45,-36,1919,596,-33,5,125,0,0,0,0,0,0,0,0,0,0,0
0,0,45,-41,1915,597,-32,6,119,0,0,0,0,0,0,0,0,0,0,0
0,0,53,-42,1914,596,-32,5,123,0,0,0,0,0,0,0,0,0,0,0
0,0,51,-32,1924,599,-33,3,141,0,0,0,0,0,0,0,0,0,0,0
0,0,49,-39,1925,596,-33,4,131,0,0,0,0,0,0,0,0,0,0,0
0,0,40,-40,1917,596,-33,5,114,0,0,0,0,0,0,0,0,0,0,0
0,0,51,-34,1920,595,-32,6,135,0,0,0,0,0,0,0,0,0,0,0
0,0,48,-42,1914,594,-32,5,116,0,0,0,0,0,0,0,0,0,0,0
0,0,49,-39,1906,596,-33,6,114,0,0,0,0,0,0,0,0,0,0,0
0,0,38,-32,1921,597,-33,3,123,0,0,0,0,0,0,0,0,0,0,0
0,0,48,-40,1913,598,-33,4,119,0,0,0,0,0,0,0,0,0,0,0
0,0,51,-38,1920,596,-31,5,132,0,0,0,0,0,0,0,0,0,0,0
0,0,46,-39,1922,597,-33,4,126,0,0,0,0,0,0,0,0,0,0,0
0,0,49,-36,1932,597,-33,5,143,0,0,0,0,0,0,0,0,0,0,0
0,0,42,-45,1927,595,-33,5,120,0,0,0,0,0,0,0,0,0,0,0
0,0,47,-40,1933,596,-33,6,138,0,0,0,0,0,0,0,0,0,0,0
0,0,46,-46,1921,596,-31,6,121,0,0,0,0,0,0,0,0,0,0,0
0,0,47,-34,1904,596,-31,5,116,0,0,0,0,0,0,0,0,0,0,0
0,0,46,-39,1919,595,-34,5,121,0,0,0,0,0,0,0,0,0,0,0
0,0,45,-30,1906,595,-32,6,119,0,0,0,0,0,0,0,0,0,0,0
0,0,41,-33,1916,597,-32,3,121,0,0,0,0,0,0,0,0,0,0,0
0,0,40,-39,1924,596,-31,3,122,0,0,0,0,0,0,0,0,0,0,0
0,0,46,-38,1923,597,-33,6,130,0,0,0,0,0,0,0,0,0,0,0
0,0,46,-33,1918,597,-33,4,128,0,0,0,0,0,0,0,0,0,0,0
0,0,40,-28,1907,598,-33,5,118,0,0,0,0,0,0,0,0,0,0,0
0,0,46,-31,1919,597,-32,5,133,0,0,0,0,0,0,0,0,0,0,0
0,0,47,-30,1924,596,-32,5,139,0,0,0,0,0,0,0,0,0,0,0
0,0,50,-37,1926,596,-33,2,133,0,0,0,0,0,0,0,0,0,0,0
0,0,54,-33,1925,594,-32,5,142,0,0,0,0,0,0,0,0,0,0,0
0,0,48,-30,1926,595,-31,4,141,0,0,0,0,0,0,0,0,0,0,0
0,0,43,-39,1923,595,-31,4,124,0,0,0,0,0,0,0,0,0,0,0
0,0,43,-36,1932,595,-31,5,137,0,0,0,0,0,0,0,0,0,0,0
0,0,53,-35,1924,596,-32,4,139,0,0,0,0,0,0,0,0,0,0,0
0,0,49,-42,1922,595,-33,5,125,0,0,0,0,0,0,0,0,0,0,0
0,0,45,-44,1925,595,-33,5,122,0,0,0,0,0,0,0,0,0,0,0
0,0,45,-43,1912,594,-32,4,109,0,0,0,0,0,0,0,0,0,0,0
0,0,46,-38,1915,595,-32,4,119,0,0,0,0,0,0,0,0,0,0,0
0,0,53,-39,1930,597,-32,4,142,0,0,0,0,0,0,0,0,0,0,0
0,0,44,-29,1927,596,-31,4,140,0,0,0,0,0,0,0,0,0,0,0
0,0,41,-30,1920,595,-32,3,126,0,0,0,0,0,0,0,0,0,0,0
0,0,46,-33,1924,596,-32,5,135,0,0,0,0,0,0,0,0,0,0,0
0,0,42,-38,1929,595,-32,3,128,0,0,0,0,0,0,0,0,0,0,0
0,0,52,-40,1922,595,-31,5,132,0,0,0,0,0,0,0,0,0,0,0
0,0,48,-38,1928,596,-32,7,138,0,0,0,0,0,0,0,0,0,0,0
0,0,49,-32,1918,597,-33,5,133,0,0,0,0,0,0,0,0,0,0,0
0,0,44,-44,1932,596,-33,4,128,0,0,0,0,0,0,0,0,0,0,0
0,0,41,-37,1922,596,-32,4,123,0,0,0,0,0,0,0,0,0,0,0
0,0,49,-37,1929,597,-32,4,139,0,0,0,0,0,0,0,0,0,0,0
0,0,44,-33,1915,596,-32,5,124,0,0,0,0,0,0,0,0,0,0,0
0,0,52,-31,1912,595,-33,5,129,0,0,0,0,0,0,0,0,0,0,0
0,0,49,-39,1913,595,-31,6,122,0,0,0,0,0,0,0,0,0,0,0
0,0,47,-36,1917,596,-32,6,127,0,0,0,0,0,0,0,0,0,0,0
0,0,43,-38,1914,595,-33,4,114,0,0,0,0,0,0,0,0,0,0,0
0,0,48,-34,1925,595,-33,3,133,0,0,0,0,0,0,0,0,0,0,0
0,0,38,-35,1926,595,-33,4,124,0,0,0,0,0,0,0,0,0,0,0
0,0,39,-38,1921,598,-31,5,123,0,0,0,0,0,0,0,0,0,0,0
0,0,44,-36,1917,596,-31,5,124,0,0,0,0,0,0,0,0,0,0,0
0,0,46,-33,1918,596,-33,5,128,0,0,0,0,0,0,0,0,0,0,0
0,0,45,-32,1910,596,-32,4,120,0,0,0,0,0,0,0,0,0,0,0
0,0,45,-31,1928,596,-31,5,141,0,0,0,0,0,0,0,0,0,0,0
0,0,47,-33,1923,598,-32,7,139,0,0,0,0,0,0,0,0,0,0,0
0,0,45,-36,1929,596,-31,5,137,0,0,0,0,0,0,0,0,0,0,0
0,0,45,-31,1922,596,-31,5,135,0,0,0,0,0,0,0,0,0,0,0
0,0,54,-39,1933,596,-33,5,145,0,0,0,0,0,0,0,0,0,0,0
0,0,46,-27,1921,597,-33,4,137,0,0,0,0,0,0,0,0,0,0,0
0,0,50,-41,1919,594,-32,5,124,0,0,0,0,0,0,0,0,0,0,0
0,0,48,-41,1917,593,-32,6,120,0,0,0,0,0,0,0,0,0,0,0
0,0,53,-35,1924,595,-32,7,141,0,0,0,0,0,0,0,0,0,0,0
0,0,48,-40,1925,596,-32,5,131,0,0,0,0,0,0,0,0,0,0,0
0,0,47,-39,1920,594,-31,4,124,0,0,0,0,0,0,0,0,0,0,0
0,0,43,-38,1922,595,-33,6,124,0,0,0,0,0,0,0,0,0,0,0
0,0,40,-29,1938,596,-32,4,146,0,0,0,0,0,0,0,0,0,0,0
0,0,40,-36,1926,596,-32,4,127,0,0,0,0,0,0,0,0,0,0,0
0,0,41,-34,1920,595,-33,5,123,0,0,0,0,0,0,0,0,0,0,0
0,0,46,-32,1932,596,-33,4,142,0,0,0,0,0,0,0,0,0,0,0
0,0,48,-28,1911,597,-32,4,129,0,0,0,0,0,0,0,0,0,0,0
0,0,40,-38,1921,597,-34,3,118,0,0,0,0,0,0,0,0,0,0,0
0,0,47,-35,1927,596,-32,4,136,0,0,0,0,0,0,0,0,0,0,0
0,0,43,-40,1927,596,-34,5,126,0,0,0,0,0,0,0,0,0,0,0
0,0,49,-38,1920,595,-32,5,128,0,0,0,0,0,0,0,0,0,0,0
0,0,52,-46,1918,595,-31,7,124,0,0,0,0,0,0,0,0,0,0,0
0,0,47,-39,1912,595,-30,5,119,0,0,0,0,0,0,0,0,0,0,0
0,0,47,-37,1917,596,-33,3,122,0,0,0,0,0,0,0,0,0,0,0
0,0,43,-41,1919,596,-34,5,117,0,0,0,0,0,0,0,0,0,0,0
0,0,41,-40,1924,598,-33,4,123,0,0,0,0,0,0,0,0,0,0,0
0,0,47,-38,1921,597,-33,3,126,0,0,0,0,0,0,0,0,0,0,0
0,0,49,-44,1920,596,-31,5,124,0,0,0,0,0,0,0,0,0,0,0
0,0,44,-39,1918,598,-31,4,123,0,0,0,0,0,0,0,0,0,0,0
0,0,46,-37,1917,596,-33,4,122,0,0,0,0,0,0,0,0,0,0,0
0,0,43,-35,1924,596,-31,5,131,0,0,0,0,0,0,0,0,0,0,0
0,0,51,-42,1921,596,-31,6,130,0,0,0,0,0,0,0,0,0,0,0
0,0,46,-40,1918,595,-33,4,119,0,0,0,0,0,0,0,0,0,0,0
0,0,53,-39,1911,596,-33,4,121,0,0,0,0,0,0,0,0,0,0,0
0,0,42,-34,1927,597,-32,5,134,0,0,0,0,0,0,0,0,0,0,0
0,0,47,-28,1918,596,-33,7,136,0,0,0,0,0,0,0,0,0,0,0
0,0,50,-39,1920,596,-32,5,129,0,0,0,0,0,0,0,0,0,0,0
0,0,51,-36,1915,596,-34,6,127,0,0,0,0,0,0,0,0,0,0,0
0,0,44,-41,1915,596,-33,6,116,0,0,0,0,0,0,0,0,0,0,0
0,0,43,-40,1922,596,-32,4,122,0,0,0,0,0,0,0,0,0,0,0
0,0,43,-37,1915,597,-32,3,118,0,0,0,0,0,0,0,0,0,0,0
0,0,46,-34,1920,597,-32,4,130,0,0,0,0,0,0,0,0,0,0,0
0,0,49,-29,1917,599,-33,5,137,0,0,0,0,0,0,0,0,0,0,0
0,0,43,-33,1919,597,-33,5,127,0,0,0,0,0,0,0,0,0,0,0
0,0,48,-35,1923,599,-31,5,138,0,0,0,0,0,0,0,0,0,0,0
0,0,52,-39,1909,597,-32,3,119,0,0,0,0,0,0,0,0,0,0,0
0,0,48,-38,1917,597,-32,4,125,0,0,0,0,0,0,0,0,0,0,0
0,0,43,-30,1911,596,-32,4,121,0,0,0,0,0,0,0,0,0,0,0
0,0,44,-34,1925,597,-31,4,134,0,0,0,0,0,0,0,0,0,0,0
0,0,47,-38,1916,595,-31,4,122,0,0,0,0,0,0,0,0,0,0,0
0,0,47,-39,1920,594,-32,4,123,0,0,0,0,0,0,0,0,0,0,0
0,0,54,-44,1913,596,-32,5,121,0,0,0,0,0,0,0,0,0,0,0
0,0,40,-38,1923,597,-32,4,123,0,0,0,0,0,0,0,0,0,0,0
0,0,40,-35,1918,595,-32,3,118,0,0,0,0,0,0,0,0,0,0,0
0,0,45,-39,1922,596,-32,6,127,0,0,0,0,0,0,0,0,0,0,0
0,0,46,-43,1921,597,-35,4,119,0,0,0,0,0,0,0,0,0,0,0
0,0,47,-39,1926,595,-33,6,131,0,0,0,0,0,0,0,0,0,0,0
0,0,40,-36,1927,595,-34,6,127,0,0,0,0,0,0,0,0,0,0,0
0,0,50,-36,1911,597,-32,6,125,0,0,0,0,0,0,0,0,0,0,0
0,0,48,-36,1922,595,-32,6,132,0,0,0,0,0,0,0,0,0,0,0
0,0,44,-35,1918,595,-34,5,122,0,0,0,0,0,0,0,0,0,0,0
0,0,43,-33,1912,597,-34,5,119,0,0,0,0,0,0,0,0,0,0,0
0,0,38,-40,1934,595,-31,2,127,0,0,0,0,0,0,0,0,0,0,0
0,0,42,-35,1923,596,-30,3,128,0,0,0,0,0,0,0,0,0,0,0
0,0,49,-37,1915,596,-32,6,126,0,0,0,0,0,0,0,0,0,0,0
0,0,53,-32,1925,597,-30,5,147,0,0,0,0,0,0,0,0,0,0,0
0,0,45,-44,1920,597,-32,6,121,0,0,0,0,0,0,0,0,0,0,0
0,0,47,-31,1918,596,-32,5,132,0,0,0,0,0,0,0,0,0,0,0
0,0,42,-35,1925,596,-32,5,130,0,0,0,0,0,0,0,0,0,0,0
0,0,41,-46,1928,596,-32,5,121,0,0,0,0,0,0,0,0,0,0,0
0,0,39,-35,1927,597,-31,3,129,0,0,0,0,0,0,0,0,0,0,0
0,0,48,-33,1929,596,-33,4,140,0,0,0,0,0,0,0,0,0,0,0
0,0,49,-36,1920,596,-33,5,130,0,0,0,0,0,0,0,0,0,0,0
0,0,49,-33,1924,596,-32,6,139,0,0,0,0,0,0,0,0,0,0,0
0,0,45,-38,1924,599,-33,4,130,0,0,0,0,0,0,0,0,0,0,0
0,0,50,-35,1923,596,-32,5,136,0,0,0,0,0,0,0,0,0,0,0
0,0,52,-36,1919,596,-31,5,134,0,0,0,0,0,0,0,0,0,0,0
0,0,53,-34,1926,596,-34,5,141,0,0,0,0,0,0,0,0,0,0,0
0,0,48,-37,1929,595,-33,5,136,0,0,0,0,0,0,0,0,0,0,0
0,0,38,-28,1928,596,-31,4,136,0,0,0,0,0,0,0,0,0,0,0
0,0,44,-35,1929,596,-31,5,137,0,0,0,0,0,0,0,0,0,0,0
0,0,47,-38,1933,595,-33,4,137,0,0,0,0,0,0,0,0,0,0,0
0,0,51,-42,1927,596,-33,4,132,0,0,0,0,0,0,0,0,0,0,0
0,0,40,-36,1922,596,-33,4,122,0,0,0,0,0,0,0,0,0,0,0
0,0,38,-29,1916,596,-32,4,122,0,0,0,0,0,0,0,0,0,0,0
0,0,37,-32,1923,595,-31,6,127,0,0,0,0,0,0,0,0,0,0,0
0,0,41,-43,1929,596,-35,4,121,0,0,0,0,0,0,0,0,0,0,0
0,0,46,-38,1918,595,-32,3,121,0,0,0,0,0,0,0,0,0,0,0
0,0,37,-36,1921,597,-32,5,121,0,0,0,0,0,0,0,0,0,0,0
0,0,38,-37,1925,596,-33,6,124,0,0,0,0,0,0,0,0,0,0,0
0,0,47,-29,1922,595,-32,5,137,0,0,0,0,0,0,0,0,0,0,0
0,0,48,-30,1921,594,-34,5,133,0,0,0,0,0,0,0,0,0,0,0
0,0,45,-36,1920,594,-34,4,122,0,0,0,0,0,0,0,0,0,0,0
0,0,48,-35,1924,596,-33,4,133,0,0,0,0,0,0,0,0,0,0,0
0,0,46,-40,1924,595,-33,4,125,0,0,0,0,0,0,0,0,0,0,0
0,0,42,-33,1907,595,-34,7,113,0,0,0,0,0,0,0,0,0,0,0
0,0,45,-34,1926,596,-32,5,135,0,0,0,0,0,0,0,0,0,0,0
0,0,40,-40,1931,597,-33,6,130,0,0,0,0,0,0,0,0,0,0,0
0,0,48,-44,1921,598,-33,5,124,0,0,0,0,0,0,0,0,0,0,0
0,0,45,-44,1916,596,-33,4,113,0,0,0,0,0,0,0,0,0,0,0
0,0,47,-38,1918,598,-30,4,128,0,0,0,0,0,0,0,0,0,0,0
0,0,46,-36,1926,596,-31,4,134,0,0,0,0,0,0,0,0,0,0,0
0,0,43,-37,1920,597,-32,6,126,0,0,0,0,0,0,0,0,0,0,0
0,0,48,-31,1915,596,-31,4,130,0,0,0,0,0,0,0,0,0,0,0
0,0,41,-30,1938,596,-34,5,145,0,0,0,0,0,0,0,0,0,0,0
0,0,44,-34,1920,596,-34,5,126,0,0,0,0,0,0,0,0,0,0,0
0,0,48,-41,1916,596,-33,6,121,0,0,0,0,0,0,0,0,0,0,0
0,0,50,-34,1916,595,-30,5,131,0,0,0,0,0,0,0,0,0,0,0
0,0,47,-41,1914,597,-31,5,120,0,0,0,0,0,0,0,0,0,0,0
0,0,45,-37,1922,598,-33,2,126,0,0,0,0,0,0,0,0,0,0,0
0,0,47,-36,1934,595,-32,6,143,0,0,0,0,0,0,0,0,0,0,0
0,0,47,-32,1918,598,-32,4,132,0,0,0,0,0,0,0,0,0,0,0
0,0,52,-36,1910,596,-31,4,124,0,0,0,0,0,0,0,0,0,0,0
0,0,45,-37,1913,595,-33,3,115,0,0,0,0,0,0,0,0,0,0,0
0,0,47,-36,1920,596,-32,4,128,0,0,0,0,0,0,0,0,0,0,0
0,0,45,-33,1911,595,-34,5,118,0,0,0,0,0,0,0,0,0,0,0
0,0,43,-34,1920,595,-33,4,124,0,0,0,0,0,0,0,0,0,0,0
0,0,45,-34,1915,595,-32,6,124,0,0,0,0,0,0,0,0,0,0,0
0,0,42,-39,1925,596,-32,5,126,0,0,0,0,0,0,0,0,0,0,0
0,0,46,-32,1931,596,-32,5,143,0,0,0,0,0,0,0,0,0,0,0
0,0,41,-40,1920,597,-33,5,119,0,0,0,0,0,0,0,0,0,0,0
0,0,37,-40,1921,597,-33,5,116,0,0,0,0,0,0,0,0,0,0,0
0,0,47,-43,1920,596,-32,4,121,0,0,0,0,0,0,0,0,0,0,0
0,0,52,-30,1916,597,-32,5,137,0,0,0,0,0,0,0,0,0,0,0
0,0,44,-40,1923,594,-33,6,123,0,0,0,0,0,0,0,0,0,0,0
0,0,42,-33,1922,595,-33,5,127,0,0,0,0,0,0,0,0,0,0,0
0,0,47,-38,1909,596,-31,5,117,0,0,0,0,0,0,0,0,0,0,0
0,0,50,-29,1908,597,-32,5,128,0,0,0,0,0,0,0,0,0,0,0
0,0,47,-31,1916,597,-33,4,129,0,0,0,0,0,0,0,0,0,0,0
0,0,50,-35,1924,595,-32,2,133,0,0,0,0,0,0,0,0,0,0,0
0,0,45,-34,1913,595,-32,5,121,0,0,0,0,0,0,0,0,0,0,0
0,0,42,-40,1920,594,-33,5,117,0,0,0,0,0,0,0,0,0,0,0
0,0,49,-46,1917,595,-33,4,115,0,0,0,0,0,0,0,0,0,0,0
0,0,40,-41,1912,595,-31,5,109,0,0,0,0,0,0,0,0,0,0,0
0,0,43,-36,1916,596,-31,5,122,0,0,0,0,0,0,0,0,0,0,0
0,0,47,-40,1923,596,-32,5,128,0,0,0,0,0,0,0,0,0,0,0
0,0,50,-40,1915,597,-31,4,124,0,0,0,0,0,0,0,0,0,0,0
0,0,45,-38,1929,597,-32,6,136,0,0,0,0,0,0,0,0,0,0,0
0,0,47,-32,1922,595,-32,5,134,0,0,0,0,0,0,0,0,0,0,0
0,0,45,-33,1927,594,-30,2,134,0,0,0,0,0,0,0,0,0,0,0
0,0,49,-36,1917,595,-32,5,127,0,0,0,0,0,0,0,0,0,0,0
0,0,45,-35,1918,596,-32,6,127,0,0,0,0,0,0,0,0,0,0,0
0,0,40,-41,1924,597,-32,5,122,0,0,0,0,0,0,0,0,0,0,0
0,0,49,-40,1910,596,-32,3,115,0,0,0,0,0,0,0,0,0,0,0
0,0,43,-37,1921,596,-31,2,123,0,0,0,0,0,0,0,0,0,0,0
0,0,48,-36,1915,595,-34,4,121,0,0,0,0,0,0,0,0,0,0,0
0,0,51,-38,1914,596,-32,5,125,0,0,0,0,0,0,0,0,0,0,0
0,0,49,-38,1925,595,-32,5,133,0,0,0,0,0,0,0,0,0,0,0
0,0,38,-33,1916,595,-32,4,117,0,0,0,0,0,0,0,0,0,0,0
0,0,41,-32,1919,598,-34,5,126,0,0,0,0,0,0,0,0,0,0,0
0,0,48,-34,1928,597,-33,3,138,0,0,0,0,0,0,0,0,0,0,0
0,0,45,-34,1926,596,-33,4,133,0,0,0,0,0,0,0,0,0,0,0
0,0,50,-37,1925,596,-32,4,135,0,0,0,0,0,0,0,0,0,0,0
0,0,43,-35,1916,596,-32,4,121,0,0,0,0,0,0,0,0,0,0,0
0,0,46,-30,1916,597,-32,4,130,0,0,0,0,0,0,0,0,0,0,0
0,0,44,-36,1907,597,-33,5,113,0,0,0,0,0,0,0,0,0,0,0
0,0,46,-39,1924,597,-32,5,130,0,0,0,0,0,0,0,0,0,0,0
0,0,43,-39,1918,597,-33,3,118,0,0,0,0,0,0,0,0,0,0,0
0,0,48,-31,1915,597,-32,3,129,0,0,0,0,0,0,0,0,0,0,0
0,0,51,-32,1928,593,-33,4,140,0,0,0,0,0,0,0,0,0,0,0
0,0,45,-37,1916,596,-32,4,121,0,0,0,0,0,0,0,0,0,0,0
0,0,44,-36,1913,596,-33,4,117,0,0,0,0,0,0,0,0,0,0,0
0,0,50,-46,1931,597,-31,4,134,0,0,0,0,0,0,0,0,0,0,0
0,0,36,-37,1917,596,-31,5,115,0,0,0,0,0,0,0,0,0,0,0
0,0,49,-36,1926,597,-33,4,136,0,0,0,0,0,0,0,0,0,0,0
0,0,45,-38,1918,596,-33,5,122,0,0,0,0,0,0,0,0,0,0,0
0,0,48,-40,1918,596,-31,5,125,0,0,0,0,0,0,0,0,0,0,0
0,0,49,-42,1909,598,-33,4,114,0,0,0,0,0,0,0,0,0,0,0
0,0,50,-39,1914,596,-32,5,123,0,0,0,0,0,0,0,0,0,0,0
0,0,42,-36,1919,598,-32,6,126,0,0,0,0,0,0,0,0,0,0,0
0,0,41,-39,1918,596,-33,6,118,0,0,0,0,0,0,0,0,0,0,0
0,0,46,-36,1915,597,-32,5,124,0,0,0,0,0,0,0,0,0,0,0
0,0,51,-33,1928,597,-31,5,146,0,0,0,0,0,0,0,0,0,0,0
0,0,48,-39,1934,598,-32,3,141,0,0,0,0,0,0,0,0,0,0,0
0,0,48,-38,1919,597,-33,5,127,0,0,0,0,0,0,0,0,0,0,0
0,0,45,-37,1920,598,-32,5,128,0,0,0,0,0,0,0,0,0,0,0
0,0,44,-39,1926,595,-32,4,127,0,0,0,0,0,0,0,0,0,0,0
0,0,45,-39,1926,595,-32,4,128,0,0,0,0,0,0,0,0,0,0,0
0,0,46,-36,1912,597,-32,4,120,0,0,0,0,0,0,0,0,0,0,0
0,0,45,-33,1928,596,-31,4,138,0,0,0,0,0,0,0,0,0,0,0
0,0,40,-37,1916,595,-32,3,114,0,0,0,0,0,0,0,0,0,0,0
0,0,38,-39,1913,595,-32,3,107,0,0,0,0,0,0,0,0,0,0,0
0,0,46,-32,1921,595,-32,5,132,0,0,0,0,0,0,0,0,0,0,0
0,0,41,-37,1922,595,-32,5,123,0,0,0,0,0,0,0,0,0,0,0
0,0,41,-36,1921,595,-32,5,123,0,0,0,0,0,0,0,0,0,0,0
0,0,43,-37,1913,596,-32,4,116,0,0,0,0,0,0,0,0,0,0,0
0,0,48,-39,1915,597,-33,5,122,0,0,0,0,0,0,0,0,0,0,0
0,0,44,-36,1926,595,-32,5,131,0,0,0,0,0,0,0,0,0,0,0
0,0,38,-41,1924,595,-32,4,117,0,0,0,0,0,0,0,0,0,0,0
0,0,43,-41,1925,594,-31,3,122,0,0,0,0,0,0,0,0,0,0,0
0,0,47,-40,1916,596,-32,4,120,0,0,0,0,0,0,0,0,0,0,0
